timestamp_ms,ax,ay,az,gx,gy,gz
0,-3.8441,0.1002,-0.9845,1726.81,1062.68,1732.42
10,-3.8441,0.1052,-0.9961,836.18,1984.56,1716.80
20,-3.8441,0.1217,-1.0000,1476.81,500.18,-1314.45
30,-3.8441,0.1425,-0.9829,-413.82,0.18,-1173.83
40,-3.8441,0.1643,-0.9564,-1757.57,-1812.26,1388.67
50,-3.8442,0.1858,-0.9408,1039.31,1578.43,-564.39
60,-3.8442,0.2024,-0.9418,-210.69,-421.57,-1736.27
70,-3.8442,0.2100,-0.9492,1914.31,-546.51,-1673.77
80,-3.8442,0.2104,-0.9518,-1116.94,-1499.63,-783.14
90,-3.8442,0.2097,-0.9448,-1054.44,-1827.76,-48.77
100,-3.8442,0.2101,-0.9364,-1148.19,-937.13,-205.02
110,-3.8442,0.2128,-0.9388,-1101.32,140.99,-423.71
120,-3.8441,0.2173,-0.9496,-757.57,-171.51,576.23
130,-3.8441,0.2167,-0.9532,-179.44,-1546.51,-1642.52
140,-3.8441,0.2070,-0.9421,-257.57,1984.74,-689.39
150,-3.8441,0.1940,-0.9301,-1491.94,-593.38,-1408.14
160,-3.8441,0.1851,-0.9305,836.18,953.49,795.04
170,-3.8442,0.1832,-0.9365,-304.44,890.93,-1095.58
180,-3.8442,0.1865,-0.9398,-538.82,125.31,1841.92
190,-3.8442,0.1915,-0.9437,-116.94,-296.57,1763.73
200,-3.8442,0.1970,-0.9542,523.68,-796.51,-1408.14
210,-3.8441,0.2026,-0.9711,1226.81,1859.74,44.98
220,-3.8441,0.2045,-0.9829,1945.56,-296.51,1357.42
230,-3.8441,0.1986,-0.9834,-1820.07,-1812.13,1748.05
240,-3.8441,0.1862,-0.9750,1429.93,-1874.63,857.42
250,-3.8442,0.1724,-0.9630,-163.82,-796.57,-908.20
260,-3.8442,0.1610,-0.9528,-1929.44,734.68,982.48
270,-3.8444,0.1553,-0.9464,617.43,-1952.82,-1158.14
280,-3.8444,0.1583,-0.9473,-116.94,-1140.38,935.61
290,-3.8445,0.1672,-0.9548,273.68,-1249.69,-611.27
300,-3.8445,0.1770,-0.9629,1414.31,1781.56,-1673.77
310,-3.8445,0.1848,-0.9657,-1335.69,750.31,1810.61
320,-3.8445,0.1908,-0.9615,-335.69,390.93,1607.48
330,-3.8445,0.1987,-0.9548,429.93,922.24,1435.61
340,-3.8445,0.2100,-0.9506,1445.56,1781.62,1107.48
350,-3.8445,0.2228,-0.9521,-1116.94,-1671.51,638.73
360,-3.8445,0.2356,-0.9581,523.68,-1874.57,185.61
370,-3.8446,0.2438,-0.9622,-1835.69,1359.80,-126.89
380,-3.8446,0.2434,-0.9581,-788.82,844.18,-267.52
390,-3.8446,0.2346,-0.9453,-835.69,1359.80,-1.89
400,-3.8445,0.2231,-0.9301,-1960.69,-999.57,654.36
410,-3.8445,0.2173,-0.9215,570.56,953.55,779.42
420,-3.8445,0.2200,-0.9274,-179.44,-1952.76,60.67
430,-3.8446,0.2271,-0.9458,164.31,1297.30,-517.46
440,-3.8446,0.2325,-0.9641,1070.56,-1062.07,-267.52
450,-3.8445,0.2318,-0.9700,1773.68,594.18,576.23
460,-3.8445,0.2238,-0.9634,1679.93,-155.82,1466.80
470,-3.8445,0.2100,-0.9521,648.68,687.93,-1939.39
480,-3.8445,0.1943,-0.9432,-1116.94,-1874.63,-1892.52
490,-3.8445,0.1812,-0.9413,883.06,-734.01,1419.98
500,-3.8445,0.1710,-0.9421,-804.44,-484.07,60.61
510,-3.8446,0.1624,-0.9368,1898.68,-593.44,-1626.89
520,-3.8446,0.1545,-0.9247,789.31,94.06,748.17
530,-3.8447,0.1477,-0.9117,-210.69,1640.87,-1048.71
540,-3.8447,0.1436,-0.9015,-1085.69,-702.88,873.17
550,-3.8448,0.1472,-0.8994,-1616.94,609.62,-1392.40
560,-3.8448,0.1586,-0.9108,-1148.19,875.24,607.60
570,-3.8450,0.1718,-0.9304,304.93,-577.82,-283.08
580,-3.8450,0.1803,-0.9470,1992.43,906.56,-33.08
590,-3.8448,0.1803,-0.9543,-913.82,-1218.44,748.11
600,-3.8448,0.1713,-0.9540,-913.82,1844.06,1357.48
610,-3.8448,0.1559,-0.9478,1929.93,1890.93,1216.86
620,-3.8448,0.1378,-0.9379,-38.82,-1312.26,341.86
630,-3.8450,0.1229,-0.9277,1648.68,-46.63,-1017.52
640,-3.8450,0.1136,-0.9193,-257.57,1250.18,1091.92
650,-3.8451,0.1088,-0.9124,-1445.07,-1671.69,-1064.33
660,-3.8451,0.1063,-0.9072,1929.93,-781.07,826.29
670,-3.8452,0.1035,-0.9041,1617.43,-124.82,-986.21
680,-3.8452,0.0981,-0.9019,1258.06,281.43,1670.10
690,-3.8452,0.0897,-0.9012,570.56,562.68,810.73
700,-3.8452,0.0789,-0.9022,-507.57,640.75,466.98
710,-3.8452,0.0670,-0.9053,-1898.19,515.75,498.23
720,-3.8452,0.0569,-0.9108,586.18,125.12,732.60
730,-3.8452,0.0505,-0.9183,-710.69,-578.06,873.17
740,-3.8452,0.0491,-0.9294,-1523.19,-1546.81,716.92
750,-3.8452,0.0518,-0.9417,-1710.69,1031.31,185.67
760,-3.8453,0.0580,-0.9496,-1366.94,-531.19,-564.39
770,-3.8453,0.0676,-0.9530,-570.07,-1546.81,-1205.02
780,-3.8453,0.0781,-0.9543,664.31,-1984.25,-1767.52
790,-3.8453,0.0897,-0.9543,-1991.94,1843.87,1607.48
800,-3.8453,0.1027,-0.9513,-507.57,1843.87,873.11
810,-3.8453,0.1162,-0.9448,1148.68,-1765.44,185.61
820,-3.8455,0.1276,-0.9377,-1116.94,-937.32,-283.14
830,-3.8455,0.1332,-0.9325,336.18,-31.01,-689.39
840,-3.8455,0.1321,-0.9292,1054.93,640.87,-1267.46
850,-3.8455,0.1265,-0.9274,914.31,1062.74,-1954.96
860,-3.8455,0.1194,-0.9265,195.56,1297.12,1201.29
870,-3.8455,0.1125,-0.9268,-710.69,1406.43,185.67
880,-3.8456,0.1088,-0.9268,-1585.69,1375.18,-845.58
890,-3.8456,0.1095,-0.9254,1929.93,1375.18,-1767.46
900,-3.8456,0.1113,-0.9211,-1976.32,1547.06,1607.54
910,-3.8456,0.1104,-0.9126,-1741.94,-1906.07,1435.67
920,-3.8456,0.1067,-0.9023,-1866.94,-812.32,1904.42
930,-3.8456,0.1007,-0.8938,1664.31,500.18,-1111.15
940,-3.8455,0.0914,-0.8849,898.68,1593.93,107.60
950,-3.8455,0.0802,-0.8757,-288.82,-1265.50,1451.35
960,-3.8455,0.0707,-0.8694,-1726.32,-93.63,-1126.77
970,-3.8453,0.0649,-0.8679,1054.93,718.87,185.79
980,-3.8453,0.0619,-0.8702,320.56,906.37,1217.04
990,-3.8453,0.0601,-0.8744,-70.07,609.44,1888.92
1000,-3.8453,0.0586,-0.8783,-304.44,78.19,-1845.46
1010,-3.8453,0.0565,-0.8796,-491.94,-421.81,-1814.27
1020,-3.8453,0.0521,-0.8761,-757.57,-593.69,-1673.65
1030,-3.8453,0.0431,-0.8689,-1320.07,-140.56,-1220.52
1040,-3.8453,0.0311,-0.8569,1523.68,781.31,-611.08
1050,-3.8453,0.0165,-0.8440,-7.57,-1687.50,-79.83
1060,-3.8452,-0.0018,-0.8374,-1882.57,-31.25,13.92
1070,-3.8453,-0.0183,-0.8335,-226.32,828.06,-282.90
1080,-3.8453,-0.0278,-0.8289,1664.31,1328.06,-611.02
1090,-3.8453,-0.0282,-0.8254,445.56,1921.81,-970.40
1100,-3.8453,-0.0193,-0.8245,398.68,-1640.69,-1423.52
1110,-3.8453,-0.0072,-0.8250,1539.31,-1515.69,1810.85
1120,-3.8453,0.0046,-0.8268,-913.82,-1578.19,951.48
1130,-3.8453,0.0179,-0.8306,601.81,-1828.12,342.10
1140,-3.8453,0.0302,-0.8354,-1695.07,1687.50,138.98
1150,-3.8453,0.0366,-0.8414,-132.57,1062.50,310.85
1160,-3.8453,0.0347,-0.8497,695.56,296.94,732.73
1170,-3.8453,0.0256,-0.8615,445.56,-765.56,1217.04
1180,-3.8453,0.0154,-0.8745,-710.69,1734.38,1623.29
1190,-3.8453,0.0084,-0.8851,1976.81,62.50,1951.42
1200,-3.8453,0.0048,-0.8932,1086.18,-1296.88,-1767.40
1210,-3.8453,0.0031,-0.8998,617.43,1671.88,-1533.02
1220,-3.8453,0.0021,-0.9055,398.68,828.12,-1470.52
1230,-3.8453,0.0012,-0.9093,273.68,93.75,-1423.65
1240,-3.8453,0.0005,-0.9119,164.31,-390.62,-1298.71
1250,-3.8453,0.0009,-0.9169,70.56,-718.75,-1470.58
1260,-3.8453,0.0002,-0.9243,117.43,-1359.38,1966.92
1270,-3.8453,-0.0018,-0.9330,39.31,1687.50,1232.54
1280,-3.8453,-0.0023,-0.9406,-226.32,593.69,638.79
1290,-3.8453,-0.0023,-0.9443,-288.82,-375.06,326.23
1300,-3.8453,-0.0061,-0.9448,-288.82,-859.44,263.73
1310,-3.8453,-0.0156,-0.9430,-773.19,-921.94,513.73
1320,-3.8453,-0.0270,-0.9397,-1991.94,-687.56,1138.73
1330,-3.8453,-0.0322,-0.9369,554.93,-265.69,-1986.27
1340,-3.8453,-0.0276,-0.9373,-116.94,93.63,-1142.46
1350,-3.8453,-0.0142,-0.9415,476.81,46.81,-470.58
1360,-3.8453,0.0033,-0.9480,-1804.44,-500.06,-95.64
1370,-3.8453,0.0179,-0.9540,429.93,-1343.75,-64.39
1380,-3.8453,0.0255,-0.9563,-1695.07,1890.62,-158.14
1390,-3.8453,0.0266,-0.9531,-726.32,1593.75,-158.14
1400,-3.8452,0.0250,-0.9440,-585.69,-2000.00,29.36
1410,-3.8452,0.0222,-0.9301,-788.82,-828.12,310.61
1420,-3.8452,0.0176,-0.9143,-1148.19,953.12,591.92
1430,-3.8452,0.0110,-0.8990,-1741.94,-1031.25,935.67
1440,-3.8452,0.0046,-0.8857,1414.31,921.88,1373.23
1450,-3.8452,0.0012,-0.8766,601.81,-1375.00,1763.85
1460,-3.8452,0.0028,-0.8729,164.31,-203.12,1810.73
1470,-3.8452,0.0107,-0.8763,367.43,265.62,1357.67
1480,-3.8452,0.0222,-0.8856,1383.06,-171.88,607.60
1490,-3.8453,0.0326,-0.8970,-1148.19,-1359.38,-204.90
1500,-3.8453,0.0394,-0.9086,179.93,1187.56,-939.27
1510,-3.8453,0.0413,-0.9193,1054.93,-296.81,-1720.58
1520,-3.8453,0.0371,-0.9271,1289.31,-1671.81,1326.29
1530,-3.8453,0.0282,-0.9309,758.06,1328.19,248.17
1540,-3.8455,0.0181,-0.9307,-382.57,843.75,-892.46
1550,-3.8455,0.0094,-0.9276,-1679.44,875.00,-1954.96
1560,-3.8455,0.0034,-0.9231,1211.18,1265.62,1201.29
1570,-3.8455,0.0005,-0.9170,445.56,1843.75,716.92
1580,-3.8455,0.0000,-0.9121,70.56,-1375.00,513.79
1590,-3.8455,0.0001,-0.9094,8.06,-750.00,529.42
1600,-3.8455,-0.0011,-0.9066,23.68,-406.25,623.17
1610,-3.8455,-0.0052,-0.9041,-132.57,-31.31,873.17
1620,-3.8455,-0.0100,-0.9028,-663.82,296.81,1623.23
1630,-3.8455,-0.0112,-0.9016,-1273.19,453.06,-1220.52
1640,-3.8453,-0.0077,-0.8994,-1429.44,609.31,279.48
1650,-3.8453,-0.0033,-0.8976,-976.32,890.56,1951.35
1660,-3.8453,-0.0032,-0.8966,-413.82,1124.94,-783.02
1670,-3.8453,-0.0078,-0.8958,-398.19,1249.94,-251.77
1680,-3.8453,-0.0138,-0.8944,-991.94,1359.31,-392.40
1690,-3.8453,-0.0184,-0.8939,-1757.57,1531.19,-814.27
1700,-3.8453,-0.0215,-0.8959,1648.68,1593.69,-1158.02
1710,-3.8453,-0.0234,-0.8999,1258.06,1343.69,-1392.40
1720,-3.8453,-0.0262,-0.9058,1008.06,828.06,-1595.52
1730,-3.8453,-0.0292,-0.9136,648.68,78.06,-1798.65
1740,-3.8453,-0.0283,-0.9218,273.68,-921.94,1982.54
1750,-3.8453,-0.0233,-0.9272,383.06,-1968.81,1857.54
1760,-3.8453,-0.0183,-0.9282,1023.68,1328.06,1748.17
1770,-3.8453,-0.0179,-0.9263,1664.31,1203.06,1607.54
1780,-3.8453,-0.0220,-0.9231,1711.18,1453.06,1576.29
1790,-3.8453,-0.0272,-0.9197,1195.56,1859.31,1576.29
1800,-3.8453,-0.0312,-0.9176,523.68,-1703.19,1388.79
1810,-3.8453,-0.0330,-0.9196,8.06,-1437.56,1232.54
1820,-3.8453,-0.0282,-0.9308,-210.69,-1687.62,1826.29
1830,-3.8453,-0.0096,-0.9501,398.68,874.94,-17.46
1840,-3.8451,0.0206,-0.9700,-1226.32,-1593.81,404.36
1850,-3.8450,0.0513,-0.9899,-1351.32,-156.25,-1439.45
1860,-3.8447,0.0734,-1.0094,-1429.44,1296.94,341.80
1870,-3.8446,0.0847,-1.0164,1398.68,-1203.00,701.11
1880,-3.8445,0.0885,-1.0120,-1148.19,1906.37,810.49
1890,-3.8444,0.0907,-1.0234,-663.82,-1531.13,1107.36
1900,-3.8442,0.0964,-1.0699,-382.57,1000.12,935.49
1910,-3.8441,0.1047,-1.1425,351.81,-952.94,966.61
1920,-3.8440,0.1094,-1.2273,1414.31,1765.81,1872.74
1930,-3.8750,0.1107,-1.3152,-1991.94,-1093.57,544.43
1940,-3.8748,0.1084,-1.3904,-1820.07,-343.57,-1158.87
1950,-3.8743,0.0771,-1.4396,1883.06,-1968.57,1419.13
1960,-3.8737,0.0000,-1.4648,1883.06,-265.50,106.51
1970,-3.8732,-0.1063,-1.4930,8.06,500.00,-299.74
1980,-3.8727,-0.2146,-1.5452,-1601.32,906.01,1653.32
1990,-3.8726,-0.2982,-1.6285,539.31,-1766.05,-1018.68
2000,-3.8726,-0.3406,-1.7310,1836.18,-438.11,1981.14
2010,-3.8727,-0.3689,-1.7927,414.31,-1547.55,1059.08
2020,-3.8729,-0.4050,-1.7878,789.31,-1453.86,-1550.42
2030,-3.8732,-0.4330,-1.7626,164.31,-828.92,-503.54
2040,-3.8733,-0.4497,-1.7601,586.18,-1594.60,746.52
2050,-3.8735,-0.4700,-1.7715,-1554.44,-1282.17,-987.85
2060,-3.8737,-0.4998,-1.7512,-148.19,1264.65,1215.27
2070,-3.8739,-0.5187,-1.6864,39.31,-141.60,-1206.60
2080,-3.8740,-0.5071,-1.6095,1617.43,155.21,574.83
2090,-3.8743,-0.4625,-1.5533,-898.19,1998.96,-878.17
2100,-3.8744,-0.3943,-1.5267,804.93,1186.58,1668.82
2110,-3.8746,-0.3274,-1.5199,1539.31,592.96,-252.99
2120,-3.8748,-0.2869,-1.5128,-1898.19,1468.08,-956.12
2130,-3.8748,-0.2866,-1.4867,-710.69,-1625.61,1200.13
2140,-3.8748,-0.3182,-1.4492,-679.44,1718.14,1481.45
2150,-3.8748,-0.3533,-1.4242,-726.32,-1485.05,-1315.37
2160,-3.8746,-0.3689,-1.4078,-1210.69,1718.02,434.69
2170,-3.8746,-0.3608,-1.3772,789.31,-188.23,1653.44
2180,-3.8746,-0.3428,-1.3291,1820.56,-266.36,1325.38
2190,-3.8748,-0.3336,-1.2783,133.06,1889.95,-580.75
2200,-3.8748,-0.3427,-1.2367,1304.93,389.95,575.62
2210,-3.8749,-0.3623,-1.1984,148.68,1718.08,1997.56
2220,-3.8749,-0.3794,-1.1600,1633.06,-1375.73,356.99
2230,-3.8750,-0.3823,-1.1321,-554.44,-469.54,-330.44
2240,-3.8749,-0.3711,-1.1138,-929.44,-891.42,278.99
2250,-3.8749,-0.3552,-1.0869,508.06,1452.39,-1736.57
2260,-3.8748,-0.3414,-1.0382,-1460.69,889.89,450.99
2270,-3.8748,-0.3286,-0.9707,304.93,-875.67,1997.92
2280,-3.8748,-0.3163,-0.8964,1945.56,-235.05,-548.83
2290,-3.8746,-0.3068,-0.8311,-476.32,1280.58,1420.10
2300,-3.8746,-0.3040,-0.7820,742.43,1640.01,-642.27
2310,-3.8745,-0.3043,-0.7450,1101.81,-78.74,920.29
2320,-3.8745,-0.2985,-0.7114,1054.93,655.64,-1751.46
2330,-3.8745,-0.2838,-0.6830,1804.93,952.51,-720.15
2340,-3.8744,-0.2588,-0.6691,-320.07,593.14,748.66
2350,-3.8743,-0.2271,-0.6581,-1116.94,-1625.55,654.91
2360,-3.8741,-0.1990,-0.6379,-1054.44,-219.24,-954.47
2370,-3.8739,-0.1836,-0.6224,-1460.69,-1641.05,-1970.03
2380,-3.8737,-0.1791,-0.6147,508.06,343.38,561.28
2390,-3.8735,-0.1807,-0.5972,1086.18,1327.76,1733.15
2400,-3.8734,-0.1840,-0.5592,883.06,-422.24,123.78
2410,-3.8735,-0.1780,-0.5121,461.18,437.13,-516.72
2420,-3.8735,-0.1544,-0.4730,1226.81,-1531.62,1202.09
2430,-3.8737,-0.1161,-0.4501,242.43,-531.56,-641.60
2440,-3.8737,-0.0758,-0.4410,1148.68,-1593.99,-422.79
2450,-3.8735,-0.0490,-0.4310,-1695.07,-437.68,1155.33
2460,-3.8735,-0.0449,-0.4058,1742.43,843.63,-1860.23
2470,-3.8735,-0.0616,-0.3748,-1741.94,78.00,-1969.54
2480,-3.8735,-0.0847,-0.3518,117.43,46.75,1874.27
2490,-3.8735,-0.1010,-0.3219,1164.31,-1015.81,-1063.23
2500,-3.8734,-0.1074,-0.2826,-913.82,-1187.74,1202.45
2510,-3.8734,-0.0953,-0.2682,-1741.94,-156.49,-531.86
2520,-3.8733,-0.0573,-0.2977,-195.07,1687.26,1468.20
2530,-3.8732,-0.0018,-0.3514,679.93,1906.13,405.64
2540,-3.8730,0.0515,-0.3888,-226.32,-968.81,624.27
2550,-3.8729,0.0851,-0.3827,-1398.19,-1765.56,1014.83
2560,-3.8728,0.0905,-0.3456,-1101.32,-984.25,483.58
2570,-3.8728,0.0712,-0.2980,-413.82,-234.25,-1328.86
2580,-3.8728,0.0427,-0.2504,1117.43,1859.50,-484.99
2590,-3.8728,0.0258,-0.2222,1476.81,-46.81,-219.30
2600,-3.8727,0.0352,-0.2338,-695.07,-437.50,999.51
2610,-3.8726,0.0752,-0.2809,508.06,-1921.81,827.64
2620,-3.8724,0.1300,-0.3170,1633.06,47.00,-828.67
2630,-3.8722,0.1722,-0.3038,648.68,-577.88,1499.33
2640,-3.8721,0.1857,-0.2588,-1945.07,1109.68,1343.14
2650,-3.8721,0.1735,-0.2148,-226.32,-1124.69,-1609.92
2660,-3.8721,0.1442,-0.1934,-1788.82,500.31,1796.45
2670,-3.8721,0.1060,-0.2146,-1538.82,-749.76,1655.82
2680,-3.8719,0.0757,-0.2738,1570.56,531.43,140.20
2690,-3.8718,0.0607,-0.3292,1695.56,953.25,1905.70
2700,-3.8716,0.0582,-0.3456,-226.32,1859.44,639.95
2710,-3.8715,0.0690,-0.3228,-538.82,-234.31,843.02
2720,-3.8715,0.0875,-0.2897,836.18,-1312.38,1374.33
2730,-3.8715,0.1035,-0.2830,-788.82,-1078.00,436.89
2740,-3.8715,0.1110,-0.3080,1258.06,-218.57,1093.14
2750,-3.8715,0.1104,-0.3374,-1788.82,578.31,-563.11
2760,-3.8713,0.1011,-0.3488,-1866.94,812.68,-1860.05
2770,-3.8712,0.0872,-0.3441,945.56,-640.44,1093.02
2780,-3.8712,0.0756,-0.3395,-835.69,-46.75,-875.73
2790,-3.8712,0.0685,-0.3429,1679.93,547.00,-1156.92
2800,-3.8712,0.0677,-0.3506,773.68,109.50,1749.33
2810,-3.8712,0.0758,-0.3452,679.93,-874.88,968.02
2820,-3.8712,0.0941,-0.3279,1711.18,-187.38,139.89
2830,-3.8713,0.1079,-0.3051,54.93,-1968.57,843.08
2840,-3.8716,0.1068,-0.2758,1820.56,953.31,-1250.61
2850,-3.8717,0.0913,-0.2568,1679.93,703.31,1983.83
2860,-3.8717,0.0414,-0.2675,-304.44,-874.88,1999.45
2870,-3.8716,-0.0349,-0.3041,1304.93,1765.69,983.83
2880,-3.8716,-0.0768,-0.3271,-460.69,1093.63,1015.01
2890,-3.8717,-0.0027,-0.3148,-1820.07,-1859.56,-1391.30
2900,-3.8713,0.1713,-0.3258,-335.69,-281.31,296.20
2910,-3.8705,0.3589,-0.4310,1929.93,-1702.82,1014.95
2920,-3.8695,0.4675,-0.5454,1945.56,828.80,1780.40
2930,-3.8691,0.3875,-0.5016,-148.19,-1811.65,-1094.85
2940,-3.8696,0.1379,-0.3615,1601.81,-202.39,186.46
2950,-3.8707,-0.0886,-0.2935,1664.31,1734.62,-1750.73
2960,-3.8715,-0.1512,-0.2845,664.31,-1547.06,1561.89
2970,-3.8718,-0.1096,-0.2842,648.68,-406.56,-1203.74
2980,-3.8719,-0.0604,-0.3048,1976.81,-359.62,-1641.24
2990,-3.8719,-0.0222,-0.3364,273.68,999.88,1577.51
3000,-3.8719,0.0221,-0.3503,1164.31,953.06,-360.05
3010,-3.8718,0.0752,-0.3385,-1163.82,-843.75,-1969.48
3020,-3.8717,0.1243,-0.3219,1633.06,672.00,1061.83
3030,-3.8716,0.1562,-0.3453,-85.69,-1202.94,-1063.17
3040,-3.8712,0.1665,-0.4121,8.06,-202.82,1514.89
3050,-3.8708,0.1519,-0.4528,1320.56,-749.69,-1766.48
3060,-3.8706,0.1223,-0.3965,-554.44,-1952.88,1858.46
3070,-3.8707,0.0787,-0.2618,-335.69,1250.18,1655.46
3080,-3.8712,-0.0022,-0.1359,-1913.82,-1515.50,1890.08
3090,-3.8717,-0.1257,-0.0532,-273.19,-1375.06,1405.94
3100,-3.8719,-0.2461,-0.0042,-85.69,1202.82,-343.87
3110,-3.8717,-0.2760,0.0099,508.06,-516.11,-421.94
3120,-3.8712,-0.1910,-0.0265,679.93,1280.70,-1265.62
3130,-3.8708,-0.0482,-0.1195,-445.07,624.57,1968.69
3140,-3.8707,0.1003,-0.2413,1836.18,718.63,-1875.24
3150,-3.8707,0.1910,-0.2880,851.81,1109.56,-1891.11
3160,-3.8710,0.1830,-0.2134,461.18,-859.01,-1328.74
3170,-3.8712,0.1344,-0.1387,-570.07,687.81,1062.07
3180,-3.8713,0.1091,-0.1360,1211.18,-1749.76,-640.93
3190,-3.8712,0.1147,-0.1606,1976.81,-1406.07,1968.44
3200,-3.8712,0.1333,-0.1722,-1304.44,-562.32,-1297.24
3210,-3.8712,0.1359,-0.1716,1070.56,1953.37,-1656.62
3220,-3.8712,0.1079,-0.1713,1398.68,-1968.51,-1031.62
3230,-3.8712,0.0680,-0.1718,1820.56,-1921.69,-312.87
3240,-3.8712,0.0392,-0.1688,711.18,-1984.25,-156.62
3250,-3.8712,0.0325,-0.1639,1023.68,-1609.31,-234.74
3260,-3.8712,0.0480,-0.1646,164.31,-984.31,-594.12
3270,-3.8712,0.0685,-0.1761,-1851.32,-1062.44,-890.99
3280,-3.8712,0.0736,-0.1914,773.68,1453.25,-1172.24
3290,-3.8712,0.0668,-0.1942,1429.93,-499.88,1952.70
3300,-3.8712,0.0680,-0.1807,554.93,-859.25,1452.70
3310,-3.8712,0.0802,-0.1663,711.18,875.12,1718.38
3320,-3.8712,0.0902,-0.1586,-1726.32,-1281.13,-1765.99
3330,-3.8712,0.0896,-0.1550,-445.07,-296.75,-1219.12
3340,-3.8712,0.0787,-0.1599,-523.19,156.37,-906.56
3350,-3.8712,0.0657,-0.1704,-1913.82,-468.63,-984.74
3360,-3.8712,0.0623,-0.1749,414.31,-1812.38,-1250.37
3370,-3.8712,0.0709,-0.1726,-23.19,1609.44,-1422.24
3380,-3.8712,0.0824,-0.1686,1086.18,1906.37,-1625.37
3390,-3.8712,0.0862,-0.1647,-1445.07,-1578.00,-1765.99
3400,-3.8712,0.0802,-0.1600,-960.69,-1078.00,-1500.37
3410,-3.8712,0.0739,-0.1578,-1726.32,-484.25,-1219.12
3420,-3.8712,0.0757,-0.1625,1461.18,-203.00,-1281.62
3430,-3.8712,0.0820,-0.1671,1695.56,-796.75,-1281.62
3440,-3.8712,0.0841,-0.1649,-1491.94,-1390.50,-1109.74
3450,-3.8712,0.0795,-0.1598,-1226.32,-1109.25,-969.12
3460,-3.8712,0.0724,-0.1578,-1820.07,-453.00,-859.74
3470,-3.8712,0.0670,-0.1599,1273.68,-203.00,-1250.37
3480,-3.8712,0.0656,-0.1599,586.18,-468.63,-1781.62
3490,-3.8712,0.0635,-0.1564,398.68,-468.63,-1547.24
3500,-3.8712,0.0570,-0.1552,133.06,-15.50,-1094.12
3510,-3.8712,0.0519,-0.1576,-695.07,140.69,-1031.56
3520,-3.8712,0.0563,-0.1628,-1351.32,-171.81,-1187.87
3530,-3.8712,0.0687,-0.1705,-788.82,-843.69,-1031.62
3540,-3.8712,0.0768,-0.1782,804.93,-1828.00,-844.12
3550,-3.8712,0.0698,-0.1842,1836.18,1187.62,-1297.24
3560,-3.8712,0.0515,-0.1858,945.56,422.00,1452.76
3570,-3.8712,0.0385,-0.1836,-1398.19,218.81,421.51
3580,-3.8712,0.0411,-0.1803,929.93,500.06,609.01
3590,-3.8712,0.0542,-0.1755,1273.68,921.94,1343.38
3600,-3.8712,0.0636,-0.1671,-1054.44,1531.31,1827.76
3610,-3.8712,0.0612,-0.1573,148.68,-1390.50,-1875.37
3620,-3.8712,0.0508,-0.1521,-163.82,-140.56,-1437.87
3630,-3.8712,0.0410,-0.1505,-1491.94,531.31,-969.06
3640,-3.8712,0.0356,-0.1494,1258.06,734.44,-719.06
3650,-3.8712,0.0330,-0.1495,570.56,875.06,-359.68
3660,-3.8712,0.0280,-0.1509,226.81,859.44,-78.43
3670,-3.8712,0.0200,-0.1522,-413.82,687.50,-328.43
3680,-3.8712,0.0156,-0.1542,-1429.44,515.62,-687.81
3690,-3.8712,0.0205,-0.1576,-1991.94,265.62,-844.06
3700,-3.8712,0.0325,-0.1633,-1366.94,-171.88,-1078.49
3710,-3.8712,0.0487,-0.1725,164.31,-906.19,-1859.74
3720,-3.8712,0.0767,-0.1860,-1757.57,1921.94,921.51
3730,-3.8712,0.1152,-0.1951,1820.56,187.62,30.88
3740,-3.8712,0.1368,-0.1898,-1241.94,-968.57,46.45
3750,-3.8712,0.1177,-0.1760,1523.68,-296.63,749.57
3760,-3.8712,0.0692,-0.1649,-929.44,1468.93,1718.38
3770,-3.8712,0.0245,-0.1591,867.43,-1109.25,-1328.49
3780,-3.8712,0.0050,-0.1562,-851.32,-359.38,-453.49
3790,-3.8711,0.0128,-0.1554,648.68,0.00,155.94
3800,-3.8711,0.0359,-0.1562,1648.68,109.38,202.82
3810,-3.8712,0.0570,-0.1611,601.81,0.06,-297.18
3820,-3.8712,0.0717,-0.1713,-695.07,-624.94,-1203.49
3830,-3.8712,0.0870,-0.1825,1179.93,-1921.75,1812.13
3840,-3.8712,0.1033,-0.1869,-851.32,640.75,827.76
3850,-3.8712,0.1152,-0.1781,1226.81,78.31,30.88
3860,-3.8712,0.1149,-0.1630,-1241.94,1203.31,421.51
3870,-3.8712,0.0969,-0.1566,-1288.82,-859.19,-1953.49
3880,-3.8712,0.0748,-0.1603,414.31,-46.69,-719.12
3890,-3.8712,0.0667,-0.1681,1586.18,-515.50,-797.24
3900,-3.8712,0.0730,-0.1776,539.31,-1515.50,-1500.37
3910,-3.8712,0.0825,-0.1815,1351.81,1265.75,-1765.99
3920,-3.8712,0.0864,-0.1775,-1429.44,765.75,-1828.49
3930,-3.8712,0.0854,-0.1755,-929.44,1281.37,1468.38
3940,-3.8712,0.0891,-0.1801,-1054.44,1531.37,609.01
3950,-3.8712,0.0953,-0.1874,-585.69,953.25,530.88
3960,-3.8712,0.0878,-0.1910,211.18,15.81,1234.01
3970,-3.8712,0.0867,-0.1782,-757.57,-453.00,-1734.80
3980,-3.8712,0.0950,-0.1635,-898.19,1187.62,1577.76
3990,-3.8712,0.0892,-0.1637,164.31,-921.69,93.38
4000,-3.8712,0.0869,-0.1697,-570.07,-953.00,640.26
4010,-3.8712,0.0952,-0.1753,-866.94,-1718.63,1921.51
4020,-3.8712,0.1013,-0.1776,195.56,1562.68,-1453.49
4030,-3.8712,0.0983,-0.1746,976.81,1265.81,-1703.49
4040,-3.8712,0.0808,-0.1664,586.18,1656.43,1827.76
4050,-3.8712,0.0293,-0.1625,-1648.19,-1296.75,1968.38
4060,-3.8712,0.0142,-0.1555,-241.94,-796.88,-937.87
4070,-3.8712,0.0691,-0.1437,1820.56,93.75,-437.81
4080,-3.8712,0.1068,-0.1519,851.81,1609.50,-1265.93
4090,-3.8712,0.1069,-0.1708,1679.93,562.68,-1890.93
4100,-3.8712,0.0961,-0.1816,1695.56,-1859.19,1562.13
4110,-3.8712,0.0930,-0.1865,304.93,750.18,1202.76
4120,-3.8712,0.0983,-0.1842,-85.69,125.12,1718.38
4130,-3.8712,0.0975,-0.1761,586.18,422.06,-1750.37
4140,-3.8712,0.0886,-0.1753,492.43,1453.31,1890.26
4150,-3.8712,0.0770,-0.1860,-648.19,1562.62,1499.63
4160,-3.8712,0.0659,-0.1989,1867.43,187.62,1827.76
4170,-3.8712,0.0602,-0.2035,445.56,-1453.00,-1578.55
4180,-3.8712,0.0627,-0.1945,-288.82,1953.19,-1281.68
4190,-3.8712,0.0757,-0.1783,39.31,-890.50,-1437.93
4200,-3.8712,0.0940,-0.1675,1695.56,1172.00,-1797.24
4210,-3.8712,0.1067,-0.1627,39.31,-1437.32,-1875.37
4220,-3.8712,0.1013,-0.1600,1664.31,-827.94,-1640.99
4230,-3.8712,0.0762,-0.1625,976.81,-484.19,-1312.87
4240,-3.8712,0.0496,-0.1736,1758.06,-796.75,-1172.24
4250,-3.8712,0.0409,-0.1869,-1648.19,1781.31,-1500.37
4260,-3.8712,0.0541,-0.1909,1242.43,78.19,-1890.99
4270,-3.8712,0.0757,-0.1863,-1070.07,-437.44,-1984.80
4280,-3.8712,0.0874,-0.1821,1695.56,156.37,1952.76
4290,-3.8712,0.0826,-0.1805,-804.44,687.62,1952.76
4300,-3.8712,0.0737,-0.1796,-1413.82,890.75,1937.13
4310,-3.8712,0.0750,-0.1782,1445.56,1015.75,1812.13
4320,-3.8712,0.0859,-0.1750,1601.81,1187.62,1796.51
4330,-3.8712,0.0959,-0.1709,-991.94,1593.87,1890.26
4340,-3.8712,0.0961,-0.1696,289.31,-1874.82,-1844.12
4350,-3.8712,0.0864,-0.1729,304.93,-1702.94,-1437.87
4360,-3.8712,0.0719,-0.1803,-929.44,1875.12,-1297.24
4370,-3.8712,0.0587,-0.1871,1211.18,922.00,-1625.37
4380,-3.8712,0.0529,-0.1882,-476.32,46.94,1812.13
4390,-3.8712,0.0562,-0.1848,-1226.32,-93.69,1624.57
4400,-3.8712,0.0662,-0.1797,-804.44,343.81,1859.01
4410,-3.8712,0.0791,-0.1744,476.81,1000.12,1952.76
4420,-3.8712,0.0912,-0.1708,-1866.94,1672.00,1937.13
4430,-3.8712,0.0966,-0.1711,-320.07,-1859.25,-1890.99
4440,-3.8712,0.0908,-0.1750,367.43,-1906.07,-1844.12
4450,-3.8712,0.0769,-0.1799,-366.94,1593.87,-1875.37
4460,-3.8712,0.0643,-0.1842,1851.81,968.87,-1578.49
4470,-3.8712,0.0596,-0.1873,242.43,422.00,-1484.74
4480,-3.8712,0.0629,-0.1860,-366.94,31.31,-1640.99
4490,-3.8712,0.0697,-0.1832,54.93,187.62,-1703.49
4500,-3.8712,0.0756,-0.1825,929.93,547.00,-1781.62
4510,-3.8712,0.0782,-0.1807,1679.93,640.75,-1969.12
4520,-3.8712,0.0796,-0.1760,-1976.32,875.12,1968.38
4530,-3.8712,0.0823,-0.1722,-1804.44,1468.87,-1875.37
4540,-3.8712,0.0850,-0.1736,-1460.69,1953.25,-1640.99
4550,-3.8712,0.0859,-0.1779,-1116.94,1781.37,-1656.62
4560,-3.8712,0.0879,-0.1797,-991.94,1234.50,1890.26
4570,-3.8712,0.0929,-0.1792,-741.94,1000.12,1452.76
4580,-3.8712,0.0974,-0.1791,-101.32,1062.62,1577.76
4590,-3.8712,0.0951,-0.1801,476.81,1078.31,-1984.74
4600,-3.8712,0.0878,-0.1825,179.93,953.31,-1703.49
4610,-3.8712,0.0844,-0.1854,-757.57,640.75,-1922.24
4620,-3.8712,0.0903,-0.1862,-1195.07,265.75,1421.51
4630,-3.8712,0.1036,-0.1848,-429.44,172.00,890.26
4640,-3.8712,0.1124,-0.1852,1273.68,343.93,921.51
4650,-3.8712,0.1058,-0.1880,-1601.32,297.06,1359.01
4660,-3.8712,0.0872,-0.1914,1554.93,-62.32,1827.70
4670,-3.8712,0.0693,-0.1934,-835.69,-499.88,-1906.68
4680,-3.8712,0.0654,-0.1943,883.06,-749.88,1843.32
4690,-3.8712,0.0808,-0.1952,383.06,-874.88,1233.95
4700,-3.8712,0.1057,-0.1948,-1648.19,-984.25,921.45
4710,-3.8712,0.1212,-0.1930,1539.31,-937.32,952.70
4720,-3.8712,0.1182,-0.1912,-476.32,-702.94,1015.20
4730,-3.8712,0.1024,-0.1907,-866.94,-468.57,999.57
4740,-3.8712,0.0862,-0.1899,1117.43,-406.07,1124.57
4750,-3.8712,0.0791,-0.1876,-960.69,-312.38,1312.07
4760,-3.8712,0.0814,-0.1868,-1866.94,-15.50,1562.07
4770,-3.8712,0.0853,-0.1885,-1570.07,93.87,1921.51
4780,-3.8712,0.0865,-0.1904,-1070.07,-124.88,1952.70
4790,-3.8712,0.0895,-0.1915,-913.82,-374.88,1718.32
4800,-3.8712,0.0978,-0.1924,-538.82,-515.50,1640.20
4810,-3.8712,0.1084,-0.1915,523.68,-624.82,1437.07
4820,-3.8712,0.1162,-0.1895,1883.06,-515.44,937.07
4830,-3.8712,0.1169,-0.1884,-1116.94,-249.82,687.07
4840,-3.8712,0.1080,-0.1882,-1023.19,-109.19,1108.95
4850,-3.8712,0.0914,-0.1890,1836.18,-93.57,1687.07
4860,-3.8712,0.0771,-0.1904,-288.82,-187.38,1843.32
4870,-3.8712,0.0746,-0.1925,1883.06,-374.88,1687.07
4880,-3.8712,0.0808,-0.1947,1554.93,-640.50,1624.57
4890,-3.8712,0.0886,-0.1976,-1648.19,-921.75,1608.95
4900,-3.8712,0.0969,-0.2003,-648.19,-1296.75,1468.32
4910,-3.8712,0.1046,-0.2001,414.31,-1640.44,1312.07
4920,-3.8712,0.1082,-0.1954,1398.68,-1609.19,1015.20
4930,-3.8712,0.1056,-0.1898,1851.81,-1015.44,827.70
4940,-3.8712,0.0992,-0.1880,1523.68,-296.69,1077.70
4950,-3.8712,0.0905,-0.1887,711.18,-62.32,1702.70
4960,-3.8712,0.0775,-0.1884,-413.82,-156.13,-1812.93
4970,-3.8712,0.0638,-0.1876,1929.93,-109.25,-1687.93
4980,-3.8712,0.0562,-0.1882,179.93,-15.50,-1781.68
4990,-3.8712,0.0592,-0.1903,-804.44,-93.69,1937.07
5000,-3.8712,0.0724,-0.1923,-413.82,-359.31,1624.57
5010,-3.8712,0.0863,-0.1930,1273.68,-609.25,1562.07
5020,-3.8712,0.0924,-0.1932,-945.07,-703.00,1765.20
5030,-3.8712,0.0895,-0.1936,-163.82,-734.25,1937.07
5040,-3.8712,0.0808,-0.1932,-538.82,-781.13,1952.70
5050,-3.8712,0.0710,-0.1929,-1648.19,-734.25,1796.45
5060,-3.8712,0.0646,-0.1938,1101.81,-687.38,1624.57
5070,-3.8712,0.0624,-0.1959,273.68,-812.38,1593.32
5080,-3.8712,0.0647,-0.1989,-7.57,-1078.06,1562.07
5090,-3.8712,0.0710,-0.2040,289.31,-1453.00,1562.07
5100,-3.8712,0.0782,-0.2107,1101.81,1890.75,1562.07
5110,-3.8712,0.0831,-0.2161,-1976.32,1031.37,1280.82
5120,-3.8712,0.0850,-0.2177,-1351.32,343.87,765.20
5130,-3.8712,0.0851,-0.2146,-1116.94,140.75,452.70
5140,-3.8712,0.0853,-0.2092,-1101.32,531.37,515.20
5150,-3.8712,0.0870,-0.2058,-1070.07,1218.87,843.32
5160,-3.8712,0.0894,-0.2065,-851.32,1656.37,1171.45
5170,-3.8712,0.0892,-0.2104,-554.44,1562.62,1171.45
5180,-3.8712,0.0862,-0.2150,-570.07,1062.62,921.45
5190,-3.8712,0.0820,-0.2175,-960.69,484.50,843.32
5200,-3.8712,0.0785,-0.2180,-1491.94,156.37,1030.82
5210,-3.8712,0.0764,-0.2175,-1945.07,93.87,1202.70
5220,-3.8712,0.0758,-0.2166,1789.31,156.37,1202.70
5230,-3.8712,0.0767,-0.2172,1711.18,281.37,1187.07
5240,-3.8712,0.0782,-0.2185,1820.56,203.25,1093.32
5250,-3.8712,0.0807,-0.2185,-1976.32,31.37,952.70
5260,-3.8712,0.0842,-0.2189,-1663.82,31.37,905.82
5270,-3.8712,0.0881,-0.2235,-1210.69,-15.50,937.01
5280,-3.8712,0.0905,-0.2302,-710.69,-609.25,952.64
5290,-3.8712,0.0874,-0.2335,-413.82,-1468.63,921.39
5300,-3.8712,0.0806,-0.2338,-804.44,-1890.50,874.51
5310,-3.8712,0.0747,-0.2332,-1679.44,-1921.75,733.89
5320,-3.8712,0.0714,-0.2334,1570.56,-1843.63,687.01
5330,-3.8712,0.0698,-0.2332,1148.68,-1874.88,812.01
5340,-3.8712,0.0701,-0.2291,945.56,-1843.63,937.01
5350,-3.8712,0.0714,-0.2216,976.81,-1328.00,874.51
5360,-3.8712,0.0731,-0.2158,1148.68,-359.25,858.89
5370,-3.8712,0.0752,-0.2141,1367.43,375.12,1015.20
5380,-3.8712,0.0787,-0.2076,1633.06,593.87,1280.82
5390,-3.8712,0.0826,-0.1940,-1913.82,1422.00,1468.32
5400,-3.8712,0.0831,-0.1857,-1413.82,-828.00,1421.45
5410,-3.8712,0.0793,-0.1963,-1351.32,234.50,1937.13
5420,-3.8712,0.0771,-0.2198,-1835.69,-1124.88,-859.80
5430,-3.8711,0.0757,-0.2296,1883.06,-140.50,30.76
5440,-3.8712,0.0708,-0.2064,1695.56,-1390.50,-500.49
5450,-3.8712,0.0667,-0.1660,1070.56,1578.25,1546.45
5460,-3.8713,0.0643,-0.1442,539.31,-1249.88,-344.12
5470,-3.8713,0.0626,-0.1523,242.43,1547.00,-656.56
5480,-3.8712,0.0619,-0.1744,23.68,500.12,687.19
5490,-3.8712,0.0594,-0.1918,-70.07,1671.94,1921.51
5500,-3.8712,0.0574,-0.2000,-382.57,-546.81,1843.32
5510,-3.8712,0.0626,-0.2036,-648.19,-1593.69,1233.95
5520,-3.8712,0.0731,-0.2074,23.68,1937.62,1077.70
5530,-3.8712,0.0797,-0.2147,1367.43,1453.25,1405.82
5540,-3.8712,0.0817,-0.2196,-1788.82,515.75,1515.20
5550,-3.8712,0.0802,-0.2101,-1538.82,-109.25,1515.14
5560,-3.8712,0.0753,-0.1892,-1726.32,1109.50,1671.45
5570,-3.8712,0.0693,-0.1738,1648.68,-218.63,1499.57
5580,-3.8712,0.0657,-0.1722,883.06,1750.12,1218.38
5590,-3.8712,0.0651,-0.1793,414.31,1953.25,1265.26
5600,-3.8712,0.0669,-0.1864,336.18,1047.00,1530.88
5610,-3.8712,0.0717,-0.1881,570.56,140.75,1484.01
5620,-3.8712,0.0778,-0.1855,1179.93,-78.00,1171.45
5630,-3.8712,0.0818,-0.1838,1961.18,250.12,1202.76
5640,-3.8712,0.0824,-0.1843,-1523.19,468.87,1593.38
5650,-3.8712,0.0798,-0.1863,-1445.07,406.37,1952.76
5660,-3.8712,0.0765,-0.1884,-1773.19,156.37,-1890.99
5670,-3.8712,0.0741,-0.1895,1804.93,-109.25,1952.70
5680,-3.8712,0.0756,-0.1891,1492.43,-249.88,1718.32
5690,-3.8712,0.0820,-0.1881,1679.93,-203.00,1515.20
5700,-3.8712,0.0922,-0.1871,-1491.94,-78.00,1390.20
5710,-3.8712,0.1042,-0.1851,-195.07,47.00,1655.88
5720,-3.8712,0.1106,-0.1846,1351.81,312.68,-1828.49
5730,-3.8712,0.0984,-0.1863,-1835.69,375.18,-1047.24
5740,-3.8712,0.0630,-0.1835,601.81,156.43,-375.37
5750,-3.8712,0.0137,-0.1820,70.56,515.75,-781.62
5760,-3.8712,-0.0262,-0.1901,1758.06,703.12,-1875.37
5770,-3.8712,-0.0321,-0.1948,648.68,-312.56,1327.70
5780,-3.8712,-0.0038,-0.1895,-101.32,-922.00,905.82
5790,-3.8712,0.0370,-0.1825,-476.32,-234.44,1171.45
5800,-3.8712,0.0684,-0.1774,742.43,640.69,1952.76
5810,-3.8712,0.0809,-0.1746,758.06,1297.00,-1515.99
5820,-3.8712,0.0774,-0.1755,-1632.57,1656.37,-1406.62
5830,-3.8712,0.0660,-0.1794,1914.31,1531.37,-1640.99
5840,-3.8712,0.0546,-0.1821,461.18,1031.37,-1844.12
5850,-3.8712,0.0482,-0.1808,-1007.57,687.56,-1844.12
5860,-3.8712,0.0458,-0.1794,-1820.07,859.44,-1875.37
5870,-3.8712,0.0443,-0.1801,1867.43,1031.31,1999.63
5880,-3.8712,0.0436,-0.1814,1679.93,953.19,1874.63
5890,-3.8712,0.0448,-0.1827,1586.18,781.31,1859.01
5900,-3.8712,0.0476,-0.1829,1742.43,609.44,1984.01
5910,-3.8712,0.0493,-0.1829,-1898.19,593.81,-1906.62
5920,-3.8712,0.0487,-0.1829,-1679.44,593.81,-1906.62
5930,-3.8712,0.0460,-0.1827,-1757.57,593.81,-1937.87
5940,-3.8712,0.0433,-0.1830,1898.68,609.44,1999.63
5950,-3.8712,0.0438,-0.1829,1554.93,578.19,1859.01
5960,-3.8712,0.0453,-0.1809,1617.43,593.81,1921.51
5970,-3.8712,0.0441,-0.1777,1804.93,843.81,-1828.49
5980,-3.8712,0.0425,-0.1759,1648.68,1250.06,-1672.24
5990,-3.8712,0.0430,-0.1766,1445.56,1484.44,-1656.62
6000,-3.8712,0.0427,-0.1777,1508.06,1390.69,-1656.62
6010,-3.8712,0.0411,-0.1781,1476.81,1250.06,-1656.62
6020,-3.8712,0.0399,-0.1779,1273.68,1203.19,-1578.49
6030,-3.8712,0.0397,-0.1777,1117.43,1234.44,-1562.87
6040,-3.8712,0.0404,-0.1782,1086.18,1250.06,-1765.99
6050,-3.8712,0.0417,-0.1786,1179.93,1187.56,-1890.99
6060,-3.8712,0.0428,-0.1776,1351.81,1140.69,-1890.99
6070,-3.8712,0.0435,-0.1759,1492.43,1265.69,-1844.12
6080,-3.8712,0.0436,-0.1744,1570.56,1484.44,-1719.12
6090,-3.8712,0.0431,-0.1735,1586.18,1671.94,-1562.87
6100,-3.8712,0.0415,-0.1735,1523.68,1796.94,-1422.24
6110,-3.8712,0.0377,-0.1736,1320.56,1796.94,-1250.37
6120,-3.8712,0.0321,-0.1741,836.18,1781.31,-1078.49
6130,-3.8712,0.0261,-0.1753,117.43,1718.81,-1078.49
6140,-3.8712,0.0225,-0.1775,-648.19,1562.50,-1625.37
6150,-3.8712,0.0234,-0.1785,-1116.94,1281.25,1624.63
6160,-3.8712,0.0297,-0.1759,-991.94,1156.25,1624.63
6170,-3.8712,0.0371,-0.1735,-195.07,1484.38,-1875.37
6180,-3.8712,0.0403,-0.1731,758.06,1796.94,-1469.12
6190,-3.8712,0.0369,-0.1738,1164.31,1843.81,-1281.62
6200,-3.8712,0.0294,-0.1750,726.81,1750.06,-1375.37
6210,-3.8712,0.0225,-0.1761,-226.32,1593.75,-1562.87
6220,-3.8712,0.0186,-0.1771,-1116.94,1453.12,-1844.12
6230,-3.8712,0.0197,-0.1769,-1616.94,1328.12,1702.76
6240,-3.8712,0.0258,-0.1747,-1476.32,1359.38,1640.26
6250,-3.8712,0.0333,-0.1731,-695.07,1640.62,-1781.62
6260,-3.8712,0.0386,-0.1736,273.68,1843.81,-1390.99
6270,-3.8712,0.0386,-0.1744,945.56,1781.31,-1484.74
6280,-3.8712,0.0339,-0.1742,945.56,1671.94,-1531.62
6290,-3.8712,0.0280,-0.1722,351.81,1703.19,-1344.12
6300,-3.8712,0.0258,-0.1722,-413.82,1953.12,-1344.12
6310,-3.8712,0.0278,-0.1755,-695.07,1953.12,-1656.62
6320,-3.8712,0.0300,-0.1754,-429.44,1531.25,-1969.12
6330,-3.8712,0.0334,-0.1727,-148.19,1546.88,-1812.87
6340,-3.8712,0.0398,-0.1733,289.31,1890.69,-1422.24
6350,-3.8712,0.0468,-0.1757,1101.81,1812.56,-1250.37
6360,-3.8712,0.0505,-0.1760,1992.43,1515.69,-1328.49
6370,-3.8712,0.0455,-0.1714,-1523.19,1468.81,-1344.12
6380,-3.8712,0.0326,-0.1626,1836.18,-1937.44,-1078.49
6390,-3.8712,0.0209,-0.1573,179.93,-812.44,-922.24
6400,-3.8712,0.0181,-0.1578,-1320.07,-140.62,-812.87
6410,-3.8712,0.0255,-0.1606,-1679.44,-203.12,-531.62
6420,-3.8712,0.0360,-0.1625,-726.32,-562.50,-531.62
6430,-3.8712,0.0369,-0.1669,617.43,-796.81,-1109.74
6440,-3.8712,0.0267,-0.1726,726.81,-1359.31,1999.63
6450,-3.8712,0.0133,-0.1731,-570.07,1906.25,1624.63
6460,-3.8712,0.0012,-0.1703,1711.18,1843.75,-1969.12
6470,-3.8712,-0.0027,-0.1672,164.31,-1796.88,-1594.12
6480,-3.8712,0.0023,-0.1644,-335.69,-1390.69,-1734.74
6490,-3.8712,0.0105,-0.1611,304.93,-1046.88,-1953.49
6500,-3.8712,0.0179,-0.1588,1351.81,-625.00,-1844.12
6510,-3.8712,0.0223,-0.1580,-1695.07,-328.12,-1453.49
6520,-3.8712,0.0233,-0.1576,-1132.57,-218.75,-1094.12
6530,-3.8712,0.0219,-0.1567,-1007.57,-171.88,-1015.99
6540,-3.8712,0.0198,-0.1544,-1195.07,-62.50,-1094.12
6550,-3.8712,0.0181,-0.1526,-1460.69,234.38,-1062.81
6560,-3.8712,0.0148,-0.1537,-1679.44,468.75,-984.68
6570,-3.8712,0.0092,-0.1555,1898.68,328.12,-1125.31
6580,-3.8712,0.0045,-0.1556,1179.93,93.75,-1297.18
6590,-3.8712,0.0082,-0.1545,586.18,78.12,-1484.68
6600,-3.8712,0.0204,-0.1536,1054.93,218.75,-1609.68
6610,-3.8712,0.0312,-0.1542,-1382.57,343.75,-1265.93
6620,-3.8712,0.0309,-0.1558,8.06,265.69,-812.81
6630,-3.8712,0.0227,-0.1573,-38.82,62.50,-937.81
6640,-3.8712,0.0178,-0.1583,-1085.69,-140.62,-1625.37
6650,-3.8712,0.0190,-0.1576,-1710.69,-265.62,1905.88
6660,-3.8712,0.0237,-0.1549,-1554.44,-171.88,-1953.49
6670,-3.8712,0.0266,-0.1512,-960.69,171.88,-1515.93
6680,-3.8712,0.0249,-0.1490,-585.69,640.62,-1140.93
6690,-3.8712,0.0199,-0.1508,-804.44,921.88,-922.18
6700,-3.8712,0.0146,-0.1544,-1445.07,703.12,-953.43
6710,-3.8712,0.0117,-0.1556,1883.06,234.38,-1312.81
6720,-3.8712,0.0143,-0.1547,1508.06,78.12,-1687.81
6730,-3.8712,0.0232,-0.1538,1836.18,203.12,-1781.56
6740,-3.8712,0.0327,-0.1531,-1023.19,312.50,-1625.31
6750,-3.8712,0.0366,-0.1521,195.56,406.31,-1312.81
6760,-3.8712,0.0333,-0.1522,695.56,531.31,-1109.68
6770,-3.8712,0.0259,-0.1526,273.68,515.69,-1062.81
6780,-3.8712,0.0178,-0.1525,-679.44,468.75,-1094.06
6790,-3.8712,0.0127,-0.1520,-1710.69,484.38,-1172.18
6800,-3.8712,0.0111,-0.1508,1633.06,546.88,-1219.06
6810,-3.8712,0.0127,-0.1494,1429.93,703.12,-1125.31
6820,-3.8712,0.0181,-0.1489,1633.06,875.00,-969.06
6830,-3.8712,0.0251,-0.1488,-1679.44,937.50,-875.31
6840,-3.8712,0.0308,-0.1492,-773.19,953.12,-937.81
6850,-3.8712,0.0330,-0.1500,-54.44,906.25,-1125.31
6860,-3.8712,0.0317,-0.1510,226.81,796.94,-1094.06
6870,-3.8712,0.0292,-0.1520,70.56,671.94,-859.68
6880,-3.8712,0.0264,-0.1521,-257.57,546.88,-922.18
6890,-3.8712,0.0236,-0.1515,-616.94,531.25,-1187.81
6900,-3.8712,0.0208,-0.1525,-976.32,609.38,-1328.43
6910,-3.8712,0.0187,-0.1543,-1335.69,484.38,-1437.81
6920,-3.8712,0.0168,-0.1549,-1601.32,250.00,-1484.68
6930,-3.8712,0.0155,-0.1533,-1835.69,171.88,-1390.93
6940,-3.8712,0.0183,-0.1516,1992.43,375.00,-1234.68
6950,-3.8712,0.0256,-0.1512,-1648.19,593.75,-1297.18
6960,-3.8712,0.0316,-0.1514,-710.69,640.62,-1312.81
6970,-3.8712,0.0332,-0.1533,54.93,625.06,-1234.68
6980,-3.8712,0.0304,-0.1562,258.06,375.06,-1250.31
6990,-3.8712,0.0248,-0.1569,-101.32,0.00,-1234.68
7000,-3.8712,0.0186,-0.1561,-820.07,-78.12,-1109.74
7010,-3.8712,0.0129,-0.1559,-1616.94,15.62,-1125.31
7020,-3.8712,0.0085,-0.1536,1664.31,46.88,-1359.68
7030,-3.8712,0.0099,-0.1506,1101.81,343.75,-1375.31
7040,-3.8712,0.0201,-0.1510,1273.68,718.75,-1234.68
7050,-3.8712,0.0299,-0.1532,-1413.82,671.88,-1125.31
7060,-3.8712,0.0317,-0.1542,-163.82,390.62,-1109.68
7070,-3.8712,0.0298,-0.1558,70.56,265.69,-1172.18
7080,-3.8712,0.0255,-0.1566,-179.44,62.50,-1156.56
7090,-3.8712,0.0170,-0.1554,-726.32,-46.88,-1156.62
7100,-3.8712,0.0123,-0.1576,-1820.07,109.38,-1312.81
7110,-3.8712,0.0171,-0.1611,1586.18,-171.88,-1547.24
7120,-3.8712,0.0232,-0.1592,-1804.44,-625.00,-1594.12
7130,-3.8712,0.0231,-0.1531,-1023.19,-375.00,-1484.74
7140,-3.8712,0.0193,-0.1499,-1038.82,406.25,-1453.43
7150,-3.8712,0.0184,-0.1506,-1523.19,812.50,-1328.43
7160,-3.8712,0.0205,-0.1525,-1632.57,718.75,-1203.43
7170,-3.8712,0.0209,-0.1545,-1366.94,484.38,-1484.68
7180,-3.8712,0.0198,-0.1573,-1320.07,218.75,-1812.81
7190,-3.8712,0.0197,-0.1581,-1460.69,-140.62,-1734.74
7200,-3.8712,0.0208,-0.1554,-1476.32,-234.38,-1265.99
7210,-3.8712,0.0216,-0.1538,-1335.69,109.38,-937.81
7220,-3.8712,0.0236,-0.1542,-1226.32,312.50,-953.43
7230,-3.8712,0.0278,-0.1531,-976.32,265.62,-1031.56
7240,-3.8712,0.0314,-0.1511,-429.44,406.25,-922.18
7250,-3.8712,0.0311,-0.1523,23.68,656.31,-687.81
7260,-3.8712,0.0266,-0.1559,-7.57,500.00,-781.56
7270,-3.8712,0.0201,-0.1567,-585.69,46.88,-1203.43
7280,-3.8712,0.0184,-0.1542,-1413.82,-62.50,-1328.49
7290,-3.8712,0.0240,-0.1526,-1632.57,265.62,-984.68
7300,-3.8712,0.0315,-0.1543,-913.82,468.75,-765.93
7310,-3.8712,0.0349,-0.1566,39.31,250.06,-844.06
7320,-3.8712,0.0341,-0.1587,476.81,-46.81,-1094.12
7330,-3.8712,0.0310,-0.1599,367.43,-312.44,-1359.74
7340,-3.8712,0.0286,-0.1594,-23.19,-468.75,-1359.74
7350,-3.8712,0.0266,-0.1572,-335.69,-406.25,-1203.49
7360,-3.8712,0.0238,-0.1547,-585.69,-125.00,-1031.62
7370,-3.8712,0.0194,-0.1538,-945.07,203.12,-828.43
7380,-3.8712,0.0181,-0.1548,-1507.57,312.50,-859.68
7390,-3.8712,0.0229,-0.1569,-1679.44,187.50,-1047.18
7400,-3.8712,0.0305,-0.1578,-1054.44,-78.12,-1234.74
7410,-3.8712,0.0369,-0.1564,-85.69,-203.12,-1500.37
7420,-3.8712,0.0385,-0.1536,726.81,-15.56,-1625.37
7430,-3.8712,0.0353,-0.1522,929.93,343.81,-1265.93
7440,-3.8712,0.0320,-0.1550,523.68,515.69,-922.18
7450,-3.8712,0.0316,-0.1591,101.81,156.31,-1062.81
7460,-3.8712,0.0309,-0.1593,54.93,-359.31,-1359.74
7470,-3.8712,0.0267,-0.1556,-38.82,-390.62,-1406.62
7480,-3.8712,0.0237,-0.1509,-570.07,78.12,-1219.06
7490,-3.8712,0.0254,-0.1483,-960.69,687.50,-1062.81
7500,-3.8712,0.0311,-0.1488,-741.94,1015.62,-906.56
7510,-3.8712,0.0355,-0.1514,-7.57,953.12,-844.06
7520,-3.8712,0.0331,-0.1537,554.93,625.06,-890.93
7530,-3.8712,0.0287,-0.1538,242.43,328.19,-906.56
7540,-3.8712,0.0316,-0.1512,-320.07,312.50,-797.18
7550,-3.8712,0.0369,-0.1478,54.93,640.69,-640.93
7560,-3.8712,0.0339,-0.1484,726.81,1078.19,-640.93
7570,-3.8712,0.0228,-0.1530,351.81,1000.06,-844.06
7580,-3.8712,0.0096,-0.1575,-1070.07,421.88,-1250.31
7590,-3.8712,0.0048,-0.1611,1242.43,-156.25,-1703.49
7600,-3.8712,0.0099,-0.1627,617.43,-625.00,1968.38
7610,-3.8712,0.0197,-0.1606,1273.68,-828.12,1952.76
7620,-3.8712,0.0348,-0.1556,-1476.32,-562.50,-1781.62
7630,-3.8712,0.0566,-0.1492,461.18,78.19,-1437.81
7640,-3.8712,0.0691,-0.1448,-741.94,906.31,-1000.31
7650,-3.8712,0.0546,-0.1464,851.81,1468.87,-781.56
7660,-3.8712,0.0190,-0.1525,-1007.57,1265.69,-922.18
7670,-3.8712,-0.0084,-0.1595,-1554.44,484.38,-1406.56
7680,-3.8712,-0.0114,-0.1637,-1070.07,-406.31,-1906.62
7690,-3.8712,0.0021,-0.1609,-1445.07,-937.56,-1906.62
7700,-3.8712,0.0170,-0.1554,273.68,-593.75,-1515.99
7710,-3.8712,0.0238,-0.1542,-1820.07,109.38,-1203.43
7720,-3.8712,0.0249,-0.1541,-945.07,265.62,-1234.68
7730,-3.8712,0.0254,-0.1512,-804.44,281.25,-1469.06
7740,-3.8712,0.0250,-0.1490,-741.94,640.62,-1390.93
7750,-3.8712,0.0231,-0.1501,-788.82,921.88,-859.68
7760,-3.8712,0.0221,-0.1526,-1038.82,781.25,-609.68
7770,-3.8712,0.0212,-0.1533,-1163.82,468.75,-937.81
7780,-3.8712,0.0195,-0.1534,-1273.19,375.00,-1156.56
7790,-3.8712,0.0181,-0.1541,-1491.94,359.38,-1094.06
7800,-3.8712,0.0171,-0.1549,-1679.44,281.25,-1219.06
7810,-3.8712,0.0179,-0.1565,-1804.44,171.88,-1375.31
7820,-3.8712,0.0234,-0.1583,-1695.07,-31.25,-1375.37
7830,-3.8712,0.0294,-0.1588,-991.94,-265.62,-1406.62
7840,-3.8712,0.0310,-0.1578,-226.32,-328.12,-1375.37
7850,-3.8712,0.0278,-0.1567,-23.19,-203.12,-1281.62
7860,-3.8712,0.0229,-0.1572,-429.44,-62.50,-1219.12
7870,-3.8712,0.0204,-0.1575,-1054.44,-125.00,-1125.37
7880,-3.8712,0.0216,-0.1572,-1382.57,-156.25,-1156.62
7890,-3.8712,0.0261,-0.1555,-1226.32,-125.00,-1297.24
7900,-3.8712,0.0298,-0.1497,-648.19,93.75,-1172.18
7910,-3.8712,0.0303,-0.1439,-179.44,843.75,-922.18
7920,-3.8712,0.0295,-0.1449,-116.94,1578.12,-734.68
7930,-3.8712,0.0269,-0.1487,-210.69,1453.12,-562.81
7940,-3.8712,0.0223,-0.1492,-554.44,968.75,-640.93
7950,-3.8712,0.0192,-0.1475,-1132.57,906.25,-922.18
7960,-3.8712,0.0198,-0.1462,-1538.82,1125.00,-922.18
7970,-3.8712,0.0245,-0.1482,-1460.69,1281.25,-797.18
7980,-3.8712,0.0272,-0.1569,-851.32,1031.25,-828.43
7990,-3.8712,0.0226,-0.1655,-507.57,-78.12,-1250.37
8000,-3.8712,0.0159,-0.1627,-1101.32,-1187.50,-1703.49
8010,-3.8712,0.0117,-0.1562,-1960.69,-828.12,-1578.49
8020,-3.8712,0.0143,-0.1611,1508.06,0.00,-1156.56
8030,-3.8712,0.0247,-0.1700,1836.18,-625.00,-1328.49
8040,-3.8712,0.0343,-0.1682,-835.69,-1765.62,1937.13
8050,-3.8712,0.0355,-0.1614,398.68,-1531.19,1780.88
8060,-3.8712,0.0311,-0.1606,554.93,-656.19,-1562.87
8070,-3.8712,0.0261,-0.1611,-7.57,-562.50,-1234.74
8080,-3.8712,0.0233,-0.1566,-648.19,-625.00,-1390.99
8090,-3.8712,0.0238,-0.1527,-1007.57,-46.88,-1281.62
8100,-3.8712,0.0261,-0.1537,-945.07,453.12,-1000.31
8110,-3.8712,0.0280,-0.1550,-648.19,328.12,-1062.81
8120,-3.8712,0.0284,-0.1567,-413.82,156.25,-1265.93
8130,-3.8712,0.0303,-0.1614,-351.32,-62.50,-1344.12
8140,-3.8712,0.0325,-0.1630,-116.94,-656.25,-1500.37
8150,-3.8712,0.0284,-0.1591,164.31,-859.31,-1719.12
8160,-3.8712,0.0206,-0.1541,-351.32,-359.38,-1640.99
8170,-3.8712,0.0107,-0.1495,-1351.32,281.25,-1312.81
8180,-3.8712,0.0033,-0.1470,1383.06,859.38,-922.18
8190,-3.8712,0.0093,-0.1509,429.93,1187.50,-640.93
8200,-3.8712,0.0237,-0.1595,1195.56,687.50,-812.81
8210,-3.8712,0.0350,-0.1638,-960.69,-421.88,-1453.49
8220,-3.8712,0.0370,-0.1632,492.43,-968.69,-1953.49
8230,-3.8712,0.0298,-0.1630,742.43,-890.56,-1719.12
8240,-3.8712,0.0178,-0.1619,-179.44,-859.38,-1250.37
8250,-3.8712,0.0088,-0.1584,-1710.69,-718.75,-1297.24
8260,-3.8712,0.0149,-0.1575,1133.06,-281.25,-1515.99
8270,-3.8712,0.0341,-0.1602,1914.31,-156.25,-1484.74
8280,-3.8712,0.0486,-0.1592,367.43,-499.94,-1406.62
8290,-3.8712,0.0424,-0.1552,-1773.19,-374.94,-1203.49
8300,-3.8712,0.0189,-0.1547,1429.93,140.69,-922.18
8310,-3.8712,-0.0021,-0.1569,-1570.07,203.12,-906.56
8320,-3.8712,-0.0071,-0.1575,-257.57,-62.56,-1344.12
8330,-3.8712,0.0028,-0.1562,-898.19,-140.69,-1781.62
8340,-3.8712,0.0172,-0.1559,367.43,0.00,-1687.81
8350,-3.8712,0.0276,-0.1573,-1788.82,46.88,-1312.81
8360,-3.8712,0.0311,-0.1591,-460.69,-140.62,-1219.12
8370,-3.8712,0.0326,-0.1586,-7.57,-359.38,-1187.87
8380,-3.8712,0.0360,-0.1547,179.93,-296.81,-1187.87
8390,-3.8712,0.0392,-0.1520,617.43,203.19,-1328.43
8400,-3.8712,0.0392,-0.1550,1023.68,546.94,-1281.56
8410,-3.8712,0.0333,-0.1602,1023.68,156.31,-969.06
8420,-3.8712,0.0211,-0.1626,273.68,-499.94,-797.24
8430,-3.8712,0.0094,-0.1635,-1288.82,-812.50,-1078.49
8440,-3.8712,0.0073,-0.1637,1211.18,-921.88,-1484.74
8450,-3.8712,0.0170,-0.1630,945.56,-953.12,-1562.87
8460,-3.8712,0.0304,-0.1617,-1820.07,-859.38,-1469.12
8470,-3.8712,0.0370,-0.1614,-101.32,-703.12,-1390.99
8480,-3.8712,0.0361,-0.1622,742.43,-656.19,-1265.99
8490,-3.8712,0.0350,-0.1632,633.06,-765.56,-1219.12
8500,-3.8712,0.0341,-0.1633,492.43,-890.56,-1375.37
8510,-3.8712,0.0288,-0.1633,367.43,-906.19,-1578.49
8520,-3.8712,0.0204,-0.1641,-304.44,-906.25,-1531.62
8530,-3.8712,0.0161,-0.1641,-1382.57,-1000.00,-1422.24
8540,-3.8712,0.0206,-0.1631,-1929.44,-1000.00,-1515.99
8550,-3.8712,0.0300,-0.1620,-1351.32,-875.00,-1625.37
8560,-3.8712,0.0361,-0.1613,-148.19,-734.38,-1453.49
8570,-3.8712,0.0341,-0.1626,633.06,-640.56,-1156.62
8580,-3.8712,0.0272,-0.1650,367.43,-812.44,-1125.37
8590,-3.8712,0.0217,-0.1655,-507.57,-1125.00,-1297.24
8600,-3.8712,0.0189,-0.1641,-1210.69,-1187.50,-1312.87
8610,-3.8712,0.0177,-0.1632,-1570.07,-1000.00,-1328.49
8620,-3.8712,0.0188,-0.1622,-1726.32,-890.62,-1469.12
8630,-3.8712,0.0231,-0.1616,-1585.69,-765.62,-1515.99
8640,-3.8712,0.0265,-0.1626,-1038.82,-687.50,-1422.24
8650,-3.8712,0.0265,-0.1643,-601.32,-812.50,-1281.62
8660,-3.8712,0.0251,-0.1652,-601.32,-1031.25,-1281.62
8670,-3.8712,0.0249,-0.1644,-773.19,-1140.62,-1437.87
8680,-3.8712,0.0248,-0.1641,-804.44,-1046.88,-1422.24
8690,-3.8712,0.0249,-0.1647,-820.07,-1000.00,-1265.99
8700,-3.8712,0.0269,-0.1644,-804.44,-1078.12,-1281.62
8710,-3.8712,0.0288,-0.1631,-554.44,-1046.88,-1422.24
8720,-3.8712,0.0267,-0.1619,-304.44,-875.00,-1469.12
8730,-3.8712,0.0232,-0.1622,-570.07,-718.75,-1328.49
8740,-3.8712,0.0212,-0.1636,-1023.19,-765.62,-1359.74
8750,-3.8712,0.0209,-0.1639,-1273.19,-937.50,-1640.99
8760,-3.8712,0.0216,-0.1638,-1320.07,-984.38,-1765.99
8770,-3.8712,0.0204,-0.1641,-1226.32,-968.75,-1469.12
8780,-3.8712,0.0194,-0.1635,-1382.57,-1000.00,-1094.12
8790,-3.8712,0.0197,-0.1626,-1507.57,-921.88,-1234.74
8800,-3.8712,0.0205,-0.1635,-1476.32,-812.50,-1531.62
8810,-3.8712,0.0223,-0.1647,-1366.94,-921.88,-1484.74
8820,-3.8712,0.0233,-0.1643,-1132.57,-1078.12,-1344.12
8830,-3.8712,0.0236,-0.1621,-1007.57,-1031.25,-1469.12
8840,-3.8712,0.0232,-0.1621,-976.32,-750.00,-1562.87
8850,-3.8712,0.0214,-0.1644,-1023.19,-750.00,-1359.74
8860,-3.8712,0.0197,-0.1654,-1257.57,-1046.88,-1250.37
8870,-3.8712,0.0192,-0.1661,-1476.32,-1171.88,-1453.49
8880,-3.8712,0.0188,-0.1661,-1538.82,-1265.62,-1609.74
8890,-3.8712,0.0187,-0.1644,-1585.69,-1265.62,-1531.62
8900,-3.8712,0.0188,-0.1627,-1601.32,-1046.88,-1469.12
8910,-3.8712,0.0194,-0.1619,-1585.69,-828.12,-1469.12
8920,-3.8712,0.0249,-0.1621,-1507.57,-718.75,-1390.99
8930,-3.8712,0.0338,-0.1644,-804.44,-750.00,-1328.49
8940,-3.8712,0.0361,-0.1664,336.18,-1046.81,-1562.87
8950,-3.8712,0.0266,-0.1647,633.06,-1296.81,-1750.37
8960,-3.8712,0.0131,-0.1627,-585.69,-1078.12,-1469.12
8970,-3.8712,0.0079,-0.1633,1679.93,-828.12,-1234.74
8980,-3.8712,0.0112,-0.1643,1023.68,-906.25,-1484.74
8990,-3.8712,0.0145,-0.1649,1445.56,-1031.25,-1625.37
9000,-3.8712,0.0170,-0.1652,1867.43,-1109.38,-1328.49
9010,-3.8712,0.0216,-0.1649,-1820.07,-1140.62,-1297.24
9020,-3.8712,0.0275,-0.1643,-1226.32,-1109.38,-1703.49
9030,-3.8712,0.0294,-0.1638,-476.32,-1031.25,-1828.49
9040,-3.8712,0.0250,-0.1637,-226.32,-968.75,-1422.24
9050,-3.8712,0.0164,-0.1635,-788.82,-953.12,-1062.87
9060,-3.8712,0.0088,-0.1631,-1898.19,-921.88,-1125.37
9070,-3.8712,0.0066,-0.1636,1133.06,-875.00,-1344.12
9080,-3.8712,0.0110,-0.1654,851.81,-937.50,-1578.49
9090,-3.8712,0.0201,-0.1660,1414.31,-1171.88,-1797.24
9100,-3.8712,0.0303,-0.1656,-1413.82,-1250.00,-1703.49
9110,-3.8712,0.0359,-0.1652,-116.94,-1203.12,-1344.12
9120,-3.8712,0.0322,-0.1648,601.81,-1140.56,-1250.37
9130,-3.8712,0.0195,-0.1667,133.06,-1093.69,-1562.87
9140,-3.8712,0.0035,-0.1731,-1491.94,-1343.75,1905.88
9150,-3.8712,-0.0066,-0.1803,461.18,1843.75,671.51
9160,-3.8713,-0.0087,-0.1842,-835.69,937.44,-1109.74
9170,-3.8713,-0.0089,-0.1852,-1101.32,437.44,1655.88
9180,-3.8713,0.0023,-0.1855,-1132.57,312.44,30.88
9190,-3.8715,0.0369,-0.1835,304.93,250.00,-1328.49
9200,-3.8713,0.0641,-0.1738,726.81,515.69,15.26
9210,-3.8713,0.0636,-0.1582,211.18,1750.12,-359.74
9220,-3.8711,0.0656,-0.1417,148.68,-249.88,765.26
9230,-3.8710,0.0868,-0.1262,398.68,1859.50,-687.81
9240,-3.8708,0.1052,-0.1163,-882.57,-156.13,1905.94
9250,-3.8710,0.1082,-0.1263,1476.81,1109.56,1187.26
9260,-3.8712,0.1005,-0.1526,1851.81,-171.69,-31.56
9270,-3.8712,0.0820,-0.1704,867.43,468.93,-1422.18
9280,-3.8712,0.0536,-0.1633,-1491.94,-1812.38,-953.49
9290,-3.8712,0.0345,-0.1477,-1132.57,-906.19,-469.12
9300,-3.8712,0.0426,-0.1477,429.93,1093.81,-562.81
9310,-3.8712,0.0697,-0.1550,1461.18,1093.81,-797.18
9320,-3.8712,0.0961,-0.1581,929.93,156.37,-844.06
9330,-3.8712,0.1082,-0.1613,304.93,-234.19,-875.37
9340,-3.8712,0.0975,-0.1647,1851.81,-640.44,-1265.99
9350,-3.8712,0.0717,-0.1646,492.43,-1077.94,-1765.99
9360,-3.8712,0.0564,-0.1613,1179.93,-1062.38,-1906.62
9370,-3.8712,0.0591,-0.1552,-773.19,-640.56,-1594.12
9380,-3.8712,0.0654,-0.1516,-429.44,140.69,-1109.68
9390,-3.8712,0.0640,-0.1549,383.06,593.87,-1109.68
9400,-3.8712,0.0581,-0.1592,195.56,172.00,-1437.81
9410,-3.8712,0.0577,-0.1604,-554.44,-374.94,-1609.74
9420,-3.8712,0.0621,-0.1606,-601.32,-531.19,-1656.62
9430,-3.8712,0.0676,-0.1614,-38.82,-562.44,-1734.74
9440,-3.8712,0.0720,-0.1606,664.31,-656.13,-1640.99
9450,-3.8712,0.0695,-0.1584,1226.81,-562.38,-1344.12
9460,-3.8712,0.0588,-0.1591,898.68,-281.13,-1375.37
9470,-3.8712,0.0498,-0.1593,-460.69,-359.31,-1922.24
9480,-3.8712,0.0498,-0.1562,-1616.94,-390.56,1796.51
9490,-3.8712,0.0543,-0.1543,-1616.94,0.06,1937.19
9500,-3.8712,0.0577,-0.1548,-1038.82,250.06,-1625.31
9510,-3.8712,0.0607,-0.1584,-601.32,187.56,-1219.06
9520,-3.8712,0.0626,-0.1647,-226.32,-281.19,-1375.37
9530,-3.8712,0.0629,-0.1696,23.68,-1078.00,-1734.74
9540,-3.8712,0.0648,-0.1709,54.93,-1703.00,1921.51
9550,-3.8712,0.0636,-0.1650,304.93,-1874.88,-1937.87
9560,-3.8712,0.0544,-0.1528,148.68,-1124.88,-750.37
9570,-3.8711,0.0459,-0.1455,-1023.19,437.56,155.94
9580,-3.8712,0.0477,-0.1490,1883.06,1375.06,-265.93
9590,-3.8712,0.0643,-0.1559,-1882.57,921.94,-1344.06
9600,-3.8712,0.0929,-0.1614,242.43,47.00,1843.44
9610,-3.8712,0.1218,-0.1641,-101.32,-656.13,1921.51
9620,-3.8712,0.1328,-0.1627,-398.19,-999.82,-1625.37
9630,-3.8712,0.1191,-0.1627,1008.06,-827.88,-1640.99
9640,-3.8712,0.0963,-0.1674,-741.94,-827.94,-1937.87
9650,-3.8712,0.0804,-0.1716,336.18,-1421.69,1937.13
9660,-3.8712,0.0773,-0.1724,-1695.07,-1968.63,-1859.74
9670,-3.8712,0.0824,-0.1725,1898.68,1937.62,-1765.99
9680,-3.8712,0.0857,-0.1732,-1445.07,1922.00,-1875.37
9690,-3.8712,0.0840,-0.1726,-1023.19,1828.25,-1922.24
9700,-3.8712,0.0792,-0.1705,-1241.94,1906.37,-1953.49
9710,-3.8712,0.0762,-0.1680,-1851.32,-1828.00,1968.38
9720,-3.8712,0.0795,-0.1654,1758.06,-1499.88,-1906.62
9730,-3.8712,0.0875,-0.1635,-1820.07,-1171.75,-1687.87
9740,-3.8712,0.0930,-0.1644,-788.82,-921.75,-1625.37
9750,-3.8712,0.0917,-0.1665,-85.69,-1046.75,-1734.74
9760,-3.8712,0.0879,-0.1670,-257.57,-1312.38,-1906.62
9770,-3.8712,0.0868,-0.1667,-741.94,-1374.88,-1875.37
9780,-3.8712,0.0886,-0.1674,-882.57,-1343.63,-1687.87
9790,-3.8712,0.0905,-0.1687,-648.19,-1421.75,-1640.99
9800,-3.8712,0.0920,-0.1686,-413.82,-1593.63,-1750.37
9810,-3.8712,0.0950,-0.1660,-210.69,-1578.00,-1672.24
9820,-3.8712,0.1000,-0.1631,164.31,-1249.82,-1172.24
9830,-3.8712,0.1042,-0.1616,804.93,-874.82,-578.49
9840,-3.8712,0.1034,-0.1604,1351.81,-687.32,-31.62
9850,-3.8711,0.0966,-0.1584,1242.43,-531.07,343.38
9860,-3.8711,0.0851,-0.1586,367.43,-281.07,640.26
9870,-3.8711,0.0720,-0.1581,-1101.32,-296.75,952.76
9880,-3.8711,0.0564,-0.1542,1226.81,-234.25,1343.38
9890,-3.8711,0.0314,-0.1539,-773.19,265.69,609.07
9900,-3.8712,-0.0032,-0.1637,23.68,296.94,1390.32
9910,-3.8713,-0.0251,-0.1755,-398.19,-937.56,1671.51
9920,-3.8713,-0.0166,-0.1765,789.31,1546.81,905.88
9930,-3.8713,0.0117,-0.1667,1883.06,1421.81,-719.12
9940,-3.8712,0.0421,-0.1597,1508.06,-1343.75,1859.01
9950,-3.8712,0.0609,-0.1628,1398.68,-437.44,-1156.62
9960,-3.8712,0.0643,-0.1691,-195.07,-843.69,-1312.87
9970,-3.8712,0.0608,-0.1710,242.43,-1640.50,-1781.62
9980,-3.8712,0.0580,-0.1693,-210.69,-1890.56,1905.88
9990,-3.8712,0.0568,-0.1671,-570.07,-1671.81,1905.88
10000,-3.8712,0.0542,-0.1659,-726.32,-1390.56,-1937.87
10010,-3.8712,0.0470,-0.1660,-1054.44,-1234.31,1999.63
10020,-3.8712,0.0392,-0.1659,-1976.32,-1249.94,1890.26
10030,-3.8712,0.0359,-0.1642,1023.68,-1234.31,-1875.37
10040,-3.8712,0.0360,-0.1631,601.81,-1015.56,-1672.24
10050,-3.8712,0.0385,-0.1637,617.43,-874.94,-1750.37
10060,-3.8712,0.0427,-0.1633,929.93,-953.06,-1609.74
10070,-3.8712,0.0454,-0.1632,1476.81,-906.19,-1297.24
10080,-3.8712,0.0471,-0.1644,1820.56,-890.56,-1500.37
10090,-3.8712,0.0481,-0.1665,-1960.69,-1046.81,-1906.62
10100,-3.8712,0.0459,-0.1702,-1835.69,-1312.44,1999.63
10110,-3.8712,0.0404,-0.1725,1883.06,-1781.19,1905.88
10120,-3.8712,0.0277,-0.1735,1179.93,1921.94,1530.88
10130,-3.8712,0.0128,-0.1750,-445.07,1796.88,390.26
10140,-3.8713,0.0115,-0.1765,1648.68,1593.75,-609.74
10150,-3.8712,0.0265,-0.1764,1476.81,1406.25,296.51
10160,-3.8712,0.0503,-0.1742,-601.32,1421.88,-1609.74
10170,-3.8711,0.0746,-0.1729,-1554.44,1703.19,234.01
10180,-3.8711,0.0883,-0.1721,1554.93,1875.12,1218.38
10190,-3.8711,0.0948,-0.1689,-695.07,1968.87,874.63
10200,-3.8712,0.1073,-0.1670,148.68,-1624.82,-234.74
10210,-3.8712,0.1241,-0.1689,1742.43,-1374.82,-1140.99
10220,-3.8712,0.1417,-0.1721,-101.32,-1624.82,-1453.49
10230,-3.8712,0.1594,-0.1731,-1851.32,1968.99,-1937.87
10240,-3.8712,0.1738,-0.1729,414.31,1844.06,1280.88
10250,-3.8712,0.1823,-0.1736,-1741.94,1875.31,718.38
10260,-3.8712,0.1838,-0.1748,-663.82,1781.56,93.38
10270,-3.8713,0.1798,-0.1776,-460.69,1625.31,-328.49
10280,-3.8713,0.1721,-0.1813,-976.32,1265.93,-234.74
10290,-3.8713,0.1611,-0.1831,-1960.69,797.18,-31.62
10300,-3.8712,0.1500,-0.1821,633.06,562.81,202.76
10310,-3.8712,0.1406,-0.1815,-788.82,687.74,718.38
10320,-3.8712,0.1329,-0.1838,-1991.94,765.87,1327.76
10330,-3.8712,0.1243,-0.1876,1023.68,468.99,1655.88
10340,-3.8712,0.1151,-0.1886,-85.69,-15.44,1405.82
10350,-3.8712,0.1125,-0.1854,-1257.57,-140.44,1343.32
10360,-3.8712,0.1178,-0.1812,-1585.69,265.81,1984.01
10370,-3.8712,0.1265,-0.1799,-913.82,812.68,-1812.87
10380,-3.8712,0.1345,-0.1825,195.56,968.99,1452.76
10390,-3.8712,0.1405,-0.1837,1226.81,640.87,905.88
10400,-3.8712,0.1431,-0.1818,1992.43,484.62,1062.13
10410,-3.8712,0.1403,-0.1810,-1679.44,734.62,1327.76
10420,-3.8712,0.1344,-0.1821,1961.18,828.37,1093.38
10430,-3.8712,0.1307,-0.1820,1211.18,687.74,655.88
10440,-3.8712,0.1321,-0.1801,742.43,703.37,687.13
10450,-3.8712,0.1338,-0.1783,914.31,953.37,1280.88
10460,-3.8712,0.1294,-0.1786,1133.06,1172.12,1859.01
10470,-3.8712,0.1223,-0.1804,570.56,1140.87,1843.38
10480,-3.8712,0.1221,-0.1829,-335.69,906.43,1390.26
10490,-3.8712,0.1296,-0.1844,-366.94,593.93,1030.88
10500,-3.8712,0.1389,-0.1840,601.81,390.87,968.38
10510,-3.8712,0.1434,-0.1832,1789.31,453.37,1093.38
10520,-3.8712,0.1417,-0.1837,-1632.57,547.12,1171.51
10530,-3.8712,0.1364,-0.1842,-1851.32,484.62,1030.88
10540,-3.8712,0.1323,-0.1833,1461.18,422.12,874.63
10550,-3.8712,0.1310,-0.1818,945.56,531.49,984.01
10560,-3.8712,0.1289,-0.1812,773.68,734.62,1187.13
10570,-3.8712,0.1249,-0.1808,508.06,812.74,1343.38
10580,-3.8712,0.1204,-0.1802,-7.57,859.56,1749.63
10590,-3.8712,0.1180,-0.1807,-585.69,937.68,-1922.24
10600,-3.8712,0.1198,-0.1829,-882.57,875.18,1843.38
10610,-3.8712,0.1245,-0.1837,-663.82,593.93,1562.13
10620,-3.8712,0.1288,-0.1824,-54.44,484.56,1484.01
10630,-3.8712,0.1318,-0.1812,492.43,656.49,1405.88
10640,-3.8712,0.1348,-0.1810,883.06,812.74,1234.01
10650,-3.8712,0.1373,-0.1803,1258.06,828.37,1062.13
10660,-3.8712,0.1376,-0.1790,1586.18,922.12,1015.26
10670,-3.8712,0.1356,-0.1787,1617.43,1093.99,1062.13
10680,-3.8712,0.1329,-0.1794,1367.43,1125.24,1327.76
10690,-3.8712,0.1298,-0.1796,1023.68,1031.49,1780.88
10700,-3.8712,0.1248,-0.1796,617.43,1015.87,-1984.74
10710,-3.8712,0.1167,-0.1813,-23.19,1015.81,1890.26
10720,-3.8712,0.1071,-0.1849,-1054.44,797.06,1452.76
10730,-3.8712,0.0984,-0.1865,1711.18,328.31,952.76
10740,-3.8712,0.0950,-0.1821,601.81,125.18,890.26
10750,-3.8712,0.0952,-0.1752,164.31,687.68,1780.88
10760,-3.8712,0.0911,-0.1724,195.56,1578.31,-1015.99
10770,-3.8712,0.0829,-0.1764,-335.69,1937.62,-1015.99
10780,-3.8712,0.0776,-0.1825,-1382.57,1422.00,-1969.12
10790,-3.8712,0.0802,-0.1847,1945.56,640.75,1468.38
10800,-3.8712,0.0889,-0.1843,-1726.32,359.50,1343.38
10810,-3.8712,0.0961,-0.1844,-616.94,406.37,1359.01
10820,-3.8712,0.0991,-0.1830,304.93,390.81,1546.51
10830,-3.8712,0.0986,-0.1796,695.56,578.31,1718.38
10840,-3.8712,0.0966,-0.1793,633.06,1015.81,1390.26
10850,-3.8712,0.1000,-0.1821,367.43,1047.06,984.01
10860,-3.8712,0.1108,-0.1837,804.93,687.68,1077.76
10870,-3.8712,0.1211,-0.1836,-1804.44,484.56,1296.51
10880,-3.8712,0.1251,-0.1832,-491.94,500.18,1249.63
10890,-3.8712,0.1232,-0.1840,23.68,547.12,1234.01
10900,-3.8712,0.1165,-0.1852,-226.32,453.31,1390.26
10910,-3.8712,0.1075,-0.1859,-1085.69,297.06,1437.13
10920,-3.8712,0.0997,-0.1857,1773.68,203.31,1593.38
10930,-3.8712,0.0957,-0.1848,773.68,234.56,1905.88
10940,-3.8712,0.0966,-0.1853,258.06,343.93,1796.51
10950,-3.8712,0.1022,-0.1862,367.43,281.43,1327.76
10960,-3.8712,0.1101,-0.1858,1086.18,172.06,1171.51
10970,-3.8712,0.1152,-0.1857,-1898.19,218.93,1609.01
10980,-3.8712,0.1143,-0.1865,-1241.94,234.56,1874.63
10990,-3.8712,0.1105,-0.1871,-1366.94,125.18,1624.63
11000,-3.8712,0.1094,-0.1863,-1851.32,47.06,1390.26
11010,-3.8712,0.1134,-0.1849,-1991.94,156.43,1421.51
11020,-3.8712,0.1174,-0.1842,-1476.32,328.31,1405.88
11030,-3.8712,0.1180,-0.1833,-960.69,422.06,1187.13
11040,-3.8712,0.1161,-0.1820,-882.57,531.43,1343.38
11050,-3.8712,0.1124,-0.1816,-1132.57,703.31,1859.01
11060,-3.8712,0.1093,-0.1824,-1601.32,750.18,1921.51
11070,-3.8712,0.1086,-0.1830,1992.43,656.43,1452.76
11080,-3.8712,0.1112,-0.1821,1914.31,578.31,1280.88
11090,-3.8712,0.1152,-0.1819,-1757.57,687.68,1624.63
11100,-3.8712,0.1179,-0.1844,-1241.94,718.93,1734.01
11110,-3.8712,0.1187,-0.1869,-898.19,390.81,1546.51
11120,-3.8712,0.1169,-0.1858,-804.44,78.31,1421.51
11130,-3.8712,0.1140,-0.1833,-1023.19,218.93,1312.13
11140,-3.8712,0.1129,-0.1815,-1398.19,531.43,1187.13
11150,-3.8712,0.1132,-0.1813,-1538.82,765.81,1140.26
11160,-3.8712,0.1150,-0.1826,-1507.57,797.06,1202.76
11170,-3.8712,0.1177,-0.1833,-1273.19,625.18,1499.63
11180,-3.8712,0.1183,-0.1830,-929.44,531.43,1749.63
11190,-3.8712,0.1176,-0.1835,-851.32,578.31,1530.88
11200,-3.8712,0.1169,-0.1851,-945.07,515.81,1280.88
11210,-3.8712,0.1154,-0.1854,-1023.19,312.68,1296.51
11220,-3.8712,0.1139,-0.1843,-1226.32,265.81,1421.51
11230,-3.8712,0.1140,-0.1835,-1413.82,406.43,1562.13
11240,-3.8712,0.1144,-0.1840,-1398.19,515.81,1577.76
11250,-3.8712,0.1145,-0.1851,-1351.32,453.31,1359.01
11260,-3.8712,0.1127,-0.1843,-1335.69,312.68,1327.76
11270,-3.8712,0.1082,-0.1826,-1570.07,406.43,1484.01
11280,-3.8712,0.1060,-0.1823,1851.81,625.18,1515.26
11290,-3.8712,0.1099,-0.1825,1570.56,672.06,1655.88
11300,-3.8712,0.1163,-0.1829,-1929.44,640.81,1702.76
11310,-3.8712,0.1216,-0.1835,-1101.32,593.93,1421.51
11320,-3.8712,0.1243,-0.1842,-429.44,515.81,1187.13
11330,-3.8712,0.1227,-0.1840,-85.69,422.06,1234.01
11340,-3.8712,0.1177,-0.1827,-288.82,453.31,1499.63
11350,-3.8712,0.1139,-0.1821,-929.44,609.56,1593.38
11360,-3.8712,0.1127,-0.1829,-1413.82,687.68,1437.13
11370,-3.8712,0.1118,-0.1840,-1570.07,593.93,1280.88
11380,-3.8712,0.1115,-0.1833,-1679.44,453.31,1234.01
11390,-3.8712,0.1121,-0.1830,-1726.32,531.43,1530.88
11400,-3.8712,0.1145,-0.1847,-1648.19,578.31,1671.51
11410,-3.8712,0.1178,-0.1868,-1335.69,359.56,1390.26
11420,-3.8712,0.1178,-0.1865,-913.82,93.93,1265.26
11430,-3.8712,0.1156,-0.1838,-913.82,125.18,1327.76
11440,-3.8712,0.1149,-0.1827,-1195.07,468.93,1421.51
11450,-3.8712,0.1162,-0.1831,-1288.82,609.56,1624.63
11460,-3.8712,0.1177,-0.1835,-1116.94,562.68,1624.63
11470,-3.8712,0.1162,-0.1838,-929.44,515.81,1437.13
11480,-3.8712,0.1122,-0.1835,-1116.94,468.93,1390.26
11490,-3.8712,0.1088,-0.1825,-1632.57,515.81,1437.13
11500,-3.8712,0.1094,-0.1830,1929.93,640.81,1577.76
11510,-3.8712,0.1139,-0.1842,-1991.94,578.31,1749.63
11520,-3.8712,0.1182,-0.1848,-1413.82,422.06,1640.26
11530,-3.8712,0.1191,-0.1842,-866.94,343.93,1374.63
11540,-3.8712,0.1180,-0.1832,-741.94,422.06,1187.13
11550,-3.8712,0.1177,-0.1826,-882.57,547.06,1155.88
11560,-3.8712,0.1182,-0.1821,-929.44,625.18,1296.51
11570,-3.8712,0.1179,-0.1821,-866.94,687.68,1484.01
11580,-3.8712,0.1168,-0.1832,-898.19,687.68,1515.26
11590,-3.8712,0.1147,-0.1848,-1038.82,547.06,1421.51
11600,-3.8712,0.1121,-0.1849,-1304.44,343.93,1452.76
11610,-3.8712,0.1110,-0.1836,-1648.19,328.31,1577.76
11620,-3.8712,0.1140,-0.1833,-1788.82,500.18,1609.01
11630,-3.8712,0.1190,-0.1844,-1398.19,531.43,1577.76
11640,-3.8712,0.1218,-0.1842,-757.57,390.81,1437.13
11650,-3.8712,0.1212,-0.1837,-398.19,422.06,1249.63
11660,-3.8712,0.1194,-0.1838,-476.32,484.56,1265.26
11670,-3.8712,0.1179,-0.1837,-710.69,468.93,1327.76
11680,-3.8712,0.1176,-0.1836,-898.19,484.56,1155.88
11690,-3.8712,0.1184,-0.1835,-945.07,500.18,1124.63
11700,-3.8712,0.1189,-0.1837,-835.69,515.81,1421.51
11710,-3.8712,0.1188,-0.1836,-773.19,484.56,1593.38
11720,-3.8712,0.1188,-0.1838,-788.82,500.18,1452.76
11730,-3.8712,0.1187,-0.1843,-788.82,468.93,1280.88
11740,-3.8712,0.1173,-0.1833,-804.44,406.43,1234.01
11750,-3.8712,0.1155,-0.1821,-976.32,531.43,1421.51
11760,-3.8712,0.1157,-0.1823,-1210.69,687.68,1671.51
11770,-3.8712,0.1185,-0.1831,-1179.44,672.06,1562.13
11780,-3.8712,0.1207,-0.1846,-820.07,562.68,1202.76
11790,-3.8712,0.1199,-0.1857,-538.82,375.18,1124.63
11800,-3.8712,0.1171,-0.1852,-648.19,234.56,1390.26
11810,-3.8712,0.1152,-0.1846,-1007.57,297.06,1671.51
11820,-3.8712,0.1141,-0.1848,-1241.94,375.18,1593.38
11830,-3.8712,0.1135,-0.1851,-1382.57,343.93,1202.76
11840,-3.8712,0.1147,-0.1841,-1460.69,312.68,1187.13
11850,-3.8712,0.1150,-0.1833,-1304.44,437.68,1702.76
11860,-3.8712,0.1145,-0.1841,-1273.19,531.43,1890.26
11870,-3.8712,0.1169,-0.1843,-1335.69,437.68,1405.88
11880,-3.8712,0.1218,-0.1836,-1023.19,406.43,1030.88
11890,-3.8712,0.1260,-0.1833,-398.19,500.18,1202.76
11900,-3.8712,0.1268,-0.1833,133.06,531.49,1405.88
11910,-3.8712,0.1240,-0.1837,242.43,531.49,1530.88
11920,-3.8712,0.1187,-0.1851,-116.94,484.56,1515.26
11930,-3.8712,0.1132,-0.1862,-804.44,312.68,1296.51
11940,-3.8712,0.1106,-0.1857,-1507.57,172.06,1327.76
11950,-3.8712,0.1119,-0.1835,-1835.69,234.56,1562.13
11960,-3.8712,0.1156,-0.1827,-1663.82,515.81,1530.88
11970,-3.8712,0.1201,-0.1842,-1195.07,609.56,1249.63
11980,-3.8712,0.1243,-0.1849,-616.94,422.06,1109.01
11990,-3.8712,0.1268,-0.1848,-85.69,328.31,1140.26
12000,-3.8712,0.1265,-0.1849,242.43,343.99,1327.76
12010,-3.8712,0.1232,-0.1846,195.56,328.37,1546.51
12020,-3.8712,0.1182,-0.1844,-226.32,375.18,1640.26
12030,-3.8712,0.1146,-0.1853,-866.94,390.81,1702.76
12040,-3.8712,0.1134,-0.1857,-1320.07,281.43,1452.76
12050,-3.8712,0.1146,-0.1848,-1476.32,234.56,1155.88
12060,-3.8712,0.1174,-0.1833,-1320.07,343.93,1249.63
12070,-3.8712,0.1194,-0.1831,-960.69,531.43,1484.01
12080,-3.8712,0.1205,-0.1827,-710.69,562.68,1390.26
12090,-3.8712,0.1218,-0.1820,-570.07,609.56,1187.13
12100,-3.8712,0.1228,-0.1825,-398.19,703.31,1249.63
12110,-3.8712,0.1226,-0.1831,-273.19,640.81,1343.38
12120,-3.8712,0.1206,-0.1835,-304.44,562.68,1327.76
12130,-3.8712,0.1188,-0.1842,-554.44,515.81,1312.13
12140,-3.8712,0.1182,-0.1849,-788.82,422.06,1484.01
12150,-3.8712,0.1189,-0.1852,-866.94,328.31,1577.76
12160,-3.8712,0.1200,-0.1849,-773.19,297.06,1530.88
12170,-3.8712,0.1213,-0.1837,-632.57,328.31,1390.26
12180,-3.8712,0.1223,-0.1830,-460.69,484.56,1312.13
12190,-3.8712,0.1205,-0.1830,-335.69,578.31,1468.38
12200,-3.8712,0.1176,-0.1827,-570.07,578.31,1515.26
12210,-3.8712,0.1179,-0.1829,-945.07,609.56,1452.76
12220,-3.8712,0.1205,-0.1837,-898.19,593.93,1593.38
12230,-3.8712,0.1210,-0.1844,-570.07,484.56,1562.13
12240,-3.8712,0.1193,-0.1848,-507.57,390.81,1280.88
12250,-3.8712,0.1180,-0.1842,-726.32,343.93,1280.88
12260,-3.8712,0.1183,-0.1837,-882.57,422.06,1452.76
12270,-3.8712,0.1195,-0.1842,-851.32,484.56,1374.63
12280,-3.8712,0.1205,-0.1843,-695.07,422.06,1187.13
12290,-3.8712,0.1208,-0.1842,-570.07,406.43,1155.88
12300,-3.8712,0.1217,-0.1841,-523.19,422.06,1234.01
12310,-3.8712,0.1226,-0.1842,-413.82,437.68,1265.26
12320,-3.8712,0.1234,-0.1847,-304.44,422.06,1187.13
12330,-3.8712,0.1238,-0.1847,-195.07,359.56,1202.76
12340,-3.8712,0.1224,-0.1842,-148.19,359.56,1327.76
12350,-3.8712,0.1200,-0.1837,-320.07,422.06,1405.88
12360,-3.8712,0.1183,-0.1835,-632.57,484.56,1484.01
12370,-3.8712,0.1185,-0.1841,-851.32,515.81,1562.13
12380,-3.8712,0.1210,-0.1853,-820.07,437.68,1499.63
12390,-3.8712,0.1227,-0.1854,-507.57,281.43,1359.01
12400,-3.8712,0.1217,-0.1847,-288.82,265.81,1374.63
12410,-3.8712,0.1193,-0.1846,-413.82,359.56,1452.76
12420,-3.8712,0.1178,-0.1851,-726.32,375.18,1437.13
12430,-3.8712,0.1184,-0.1847,-913.82,312.68,1421.51
12440,-3.8712,0.1205,-0.1835,-835.69,359.56,1405.88
12450,-3.8712,0.1232,-0.1827,-570.07,515.81,1296.51
12460,-3.8712,0.1251,-0.1826,-226.32,609.56,1202.76
12470,-3.8712,0.1249,-0.1830,23.68,625.24,1234.01
12480,-3.8712,0.1227,-0.1840,-7.57,578.31,1265.26
12490,-3.8712,0.1194,-0.1848,-288.82,453.31,1312.13
12500,-3.8712,0.1169,-0.1849,-710.69,343.93,1359.01
12510,-3.8712,0.1167,-0.1842,-1023.19,328.31,1265.26
12520,-3.8712,0.1187,-0.1832,-1054.44,422.06,1343.38
12530,-3.8712,0.1221,-0.1835,-804.44,547.06,1421.51
12540,-3.8712,0.1251,-0.1846,-366.94,515.81,1327.76
12550,-3.8712,0.1256,-0.1860,23.68,375.24,1218.38
12560,-3.8712,0.1228,-0.1873,86.18,187.74,1140.26
12570,-3.8712,0.1171,-0.1868,-273.19,31.43,1202.76
12580,-3.8712,0.1130,-0.1855,-1007.57,93.93,1452.76
12590,-3.8712,0.1150,-0.1852,-1523.19,250.18,1546.51
12600,-3.8712,0.1215,-0.1854,-1273.19,297.06,1359.01
12610,-3.8712,0.1278,-0.1855,-445.07,265.81,1171.51
12620,-3.8712,0.1294,-0.1851,367.43,250.24,1124.63
12630,-3.8712,0.1243,-0.1838,570.56,312.74,1280.88
12640,-3.8712,0.1165,-0.1827,-85.69,468.93,1405.88
12650,-3.8712,0.1130,-0.1833,-1085.69,609.56,1390.26
12660,-3.8712,0.1152,-0.1841,-1523.19,531.43,1437.13
12670,-3.8712,0.1193,-0.1837,-1241.94,437.68,1452.76
12680,-3.8712,0.1222,-0.1831,-726.32,484.56,1327.76
12690,-3.8712,0.1222,-0.1837,-351.32,562.68,1218.38
12700,-3.8712,0.1206,-0.1844,-351.32,484.56,1265.26
12710,-3.8712,0.1196,-0.1837,-554.44,390.81,1452.76
12720,-3.8712,0.1198,-0.1831,-679.44,484.56,1640.26
12730,-3.8712,0.1210,-0.1832,-663.82,562.68,1515.26
12740,-3.8712,0.1228,-0.1835,-507.57,547.06,1234.01
12750,-3.8712,0.1245,-0.1837,-273.19,515.81,1140.26
12760,-3.8712,0.1245,-0.1847,-54.44,484.56,1265.26
12770,-3.8712,0.1211,-0.1857,-54.44,359.56,1343.38
12780,-3.8712,0.1171,-0.1849,-491.94,234.56,1280.88
12790,-3.8712,0.1163,-0.1840,-1007.57,328.31,1343.38
12800,-3.8712,0.1189,-0.1844,-1101.32,453.31,1452.76
12810,-3.8712,0.1223,-0.1855,-773.19,390.81,1390.26
12820,-3.8712,0.1239,-0.1857,-335.69,250.18,1249.63
12830,-3.8712,0.1222,-0.1843,-132.57,234.56,1187.13
12840,-3.8712,0.1196,-0.1827,-351.32,406.43,1312.13
12850,-3.8712,0.1189,-0.1833,-679.44,609.56,1421.51
12860,-3.8712,0.1191,-0.1853,-773.19,531.43,1405.88
12870,-3.8712,0.1188,-0.1859,-741.94,281.43,1327.76
12880,-3.8712,0.1187,-0.1849,-788.82,203.31,1468.38
12890,-3.8712,0.1204,-0.1844,-804.44,328.31,1609.01
12900,-3.8712,0.1235,-0.1851,-585.69,390.81,1421.51
12910,-3.8712,0.1267,-0.1847,-179.44,312.68,1124.63
12920,-3.8712,0.1276,-0.1836,226.81,359.62,984.01
12930,-3.8712,0.1255,-0.1832,336.18,500.24,1140.26
12940,-3.8712,0.1205,-0.1832,70.56,547.12,1327.76
12950,-3.8712,0.1136,-0.1836,-570.07,547.06,1359.01
12960,-3.8712,0.1097,-0.1831,-1445.07,500.18,1359.01
12970,-3.8712,0.1123,-0.1829,-1945.07,562.68,1499.63
12980,-3.8712,0.1184,-0.1848,-1616.94,593.93,1655.88
12990,-3.8712,0.1252,-0.1858,-835.69,343.93,1468.38
13000,-3.8712,0.1300,-0.1849,39.31,218.99,1202.76
13010,-3.8712,0.1290,-0.1830,648.68,328.37,1202.76
13020,-3.8712,0.1239,-0.1808,523.68,578.37,1359.01
13030,-3.8712,0.1190,-0.1807,-132.57,859.56,1484.01
13040,-3.8712,0.1158,-0.1815,-757.57,875.18,1499.63
13050,-3.8712,0.1151,-0.1815,-1163.82,765.81,1437.13
13060,-3.8712,0.1178,-0.1815,-1257.57,765.81,1437.13
13070,-3.8712,0.1222,-0.1827,-913.82,765.81,1437.13
13080,-3.8712,0.1261,-0.1849,-351.32,609.56,1280.88
13090,-3.8712,0.1274,-0.1863,148.68,328.37,1046.51
13100,-3.8712,0.1266,-0.1860,320.56,156.49,1093.38
13110,-3.8712,0.1235,-0.1857,211.18,187.74,1234.01
13120,-3.8712,0.1198,-0.1855,-179.44,234.56,1249.63
13130,-3.8712,0.1169,-0.1846,-663.82,250.18,1312.13
13140,-3.8712,0.1154,-0.1841,-1023.19,375.18,1546.51
13150,-3.8712,0.1160,-0.1844,-1226.32,437.68,1593.38
13160,-3.8712,0.1184,-0.1844,-1148.19,390.81,1421.51
13170,-3.8712,0.1219,-0.1837,-835.69,390.81,1296.51
13180,-3.8712,0.1255,-0.1840,-382.57,484.56,1202.76
13190,-3.8712,0.1265,-0.1851,70.56,453.37,1155.88
13200,-3.8712,0.1245,-0.1854,195.56,312.74,1124.63
13210,-3.8712,0.1218,-0.1852,-54.44,265.81,1124.63
13220,-3.8712,0.1207,-0.1848,-398.19,297.06,1249.63
13230,-3.8712,0.1219,-0.1848,-538.82,343.93,1280.88
13240,-3.8712,0.1244,-0.1843,-382.57,343.93,1234.01
13250,-3.8712,0.1262,-0.1833,-70.07,406.43,1249.63
13260,-3.8712,0.1249,-0.1833,164.31,531.49,1280.88
13270,-3.8712,0.1201,-0.1840,-7.57,531.43,1343.38
13280,-3.8712,0.1163,-0.1846,-616.94,453.31,1484.01
13290,-3.8712,0.1177,-0.1851,-1101.32,375.18,1546.51
13300,-3.8712,0.1218,-0.1858,-929.44,312.68,1452.76
13310,-3.8712,0.1244,-0.1859,-398.19,218.93,1234.01
13320,-3.8712,0.1248,-0.1852,-70.07,203.31,1124.63
13330,-3.8712,0.1228,-0.1846,-23.19,297.06,1202.76
13340,-3.8712,0.1207,-0.1851,-273.19,375.18,1296.51
13350,-3.8712,0.1211,-0.1857,-538.82,312.68,1296.51
13360,-3.8712,0.1224,-0.1852,-491.94,234.56,1280.88
13370,-3.8712,0.1237,-0.1846,-320.07,297.06,1265.26
13380,-3.8712,0.1239,-0.1844,-163.82,375.18,1218.38
13390,-3.8712,0.1222,-0.1835,-132.57,390.81,1171.51
13400,-3.8712,0.1200,-0.1824,-351.32,515.81,1280.88
13410,-3.8712,0.1194,-0.1831,-632.57,656.43,1515.26
13420,-3.8712,0.1211,-0.1848,-710.69,562.68,1562.13
13430,-3.8712,0.1229,-0.1852,-491.94,343.93,1390.26
13440,-3.8712,0.1230,-0.1843,-257.57,297.06,1296.51
13450,-3.8712,0.1218,-0.1831,-241.94,406.43,1421.51
13460,-3.8712,0.1196,-0.1823,-398.19,562.68,1702.76
13470,-3.8712,0.1184,-0.1820,-679.44,672.06,1765.26
13480,-3.8712,0.1202,-0.1821,-835.69,703.31,1562.13
13490,-3.8712,0.1234,-0.1830,-601.32,687.68,1468.38
13500,-3.8712,0.1243,-0.1848,-195.07,578.31,1421.51
13510,-3.8712,0.1227,-0.1855,-85.69,343.93,1343.38
13520,-3.8712,0.1194,-0.1843,-288.82,250.18,1390.26
13530,-3.8712,0.1172,-0.1836,-710.69,406.43,1515.26
13540,-3.8712,0.1173,-0.1842,-991.94,500.18,1530.88
13550,-3.8712,0.1207,-0.1848,-976.32,422.06,1437.13
13560,-3.8712,0.1255,-0.1852,-538.82,343.93,1374.63
13570,-3.8712,0.1277,-0.1846,70.56,297.12,1265.26
13580,-3.8712,0.1259,-0.1837,351.81,375.24,1187.13
13590,-3.8712,0.1218,-0.1840,117.43,484.62,1218.38
13600,-3.8712,0.1187,-0.1843,-398.19,453.31,1312.13
13610,-3.8712,0.1177,-0.1843,-804.44,406.43,1421.51
13620,-3.8712,0.1174,-0.1848,-929.44,406.43,1437.13
13630,-3.8712,0.1182,-0.1855,-960.69,343.93,1405.88
13640,-3.8712,0.1198,-0.1858,-866.94,250.18,1359.01
13650,-3.8712,0.1205,-0.1855,-663.82,218.93,1390.26
13660,-3.8712,0.1202,-0.1858,-570.07,250.18,1390.26
13670,-3.8712,0.1211,-0.1862,-601.32,218.93,1265.26
13680,-3.8712,0.1227,-0.1863,-491.94,172.06,1249.63
13690,-3.8712,0.1233,-0.1860,-288.82,156.43,1234.01
13700,-3.8712,0.1234,-0.1849,-210.69,187.68,1234.01
13710,-3.8712,0.1229,-0.1840,-195.07,328.31,1312.13
13720,-3.8712,0.1211,-0.1837,-257.57,453.31,1327.76
13730,-3.8712,0.1182,-0.1833,-491.94,484.56,1296.51
13740,-3.8712,0.1167,-0.1831,-866.94,531.43,1343.38
13750,-3.8712,0.1182,-0.1836,-1054.44,562.68,1359.01
13760,-3.8712,0.1195,-0.1838,-866.94,500.18,1359.01
13770,-3.8712,0.1193,-0.1832,-695.07,468.93,1468.38
13780,-3.8712,0.1191,-0.1829,-726.32,547.06,1452.76
13790,-3.8712,0.1202,-0.1833,-741.94,593.93,1265.26
13800,-3.8712,0.1217,-0.1840,-601.32,531.43,1124.63
13810,-3.8712,0.1227,-0.1840,-413.82,453.31,1280.88
13820,-3.8712,0.1226,-0.1837,-288.82,453.31,1468.38
13830,-3.8712,0.1217,-0.1844,-304.44,484.56,1405.88
13840,-3.8712,0.1211,-0.1863,-413.82,390.81,1312.13
13850,-3.8712,0.1206,-0.1870,-491.94,156.43,1327.76
13860,-3.8712,0.1207,-0.1862,-554.44,62.68,1421.51
13870,-3.8712,0.1205,-0.1849,-538.82,172.06,1499.63
13880,-3.8712,0.1196,-0.1846,-570.07,328.31,1452.76
13890,-3.8712,0.1198,-0.1854,-679.44,375.18,1327.76
13900,-3.8712,0.1201,-0.1849,-663.82,265.81,1327.76
13910,-3.8712,0.1198,-0.1836,-616.94,328.31,1374.63
13920,-3.8712,0.1201,-0.1827,-663.82,500.18,1484.01
13930,-3.8712,0.1218,-0.1825,-616.94,609.56,1577.76
13940,-3.8712,0.1227,-0.1826,-398.19,640.81,1452.76
13950,-3.8712,0.1222,-0.1826,-288.82,625.18,1359.01
13960,-3.8712,0.1212,-0.1827,-351.32,625.18,1327.76
13970,-3.8712,0.1194,-0.1837,-476.32,609.56,1327.76
13980,-3.8712,0.1180,-0.1847,-710.69,484.56,1484.01
13990,-3.8712,0.1174,-0.1849,-882.57,359.56,1499.63
14000,-3.8712,0.1174,-0.1857,-960.69,328.31,1296.51
14010,-3.8712,0.1188,-0.1859,-960.69,234.56,1265.26
14020,-3.8712,0.1201,-0.1852,-788.82,203.31,1327.76
14030,-3.8712,0.1205,-0.1847,-616.94,297.06,1437.13
14040,-3.8712,0.1205,-0.1843,-570.07,359.56,1499.63
14050,-3.8712,0.1208,-0.1836,-570.07,406.43,1374.63
14060,-3.8712,0.1219,-0.1831,-523.19,500.18,1359.01
14070,-3.8712,0.1230,-0.1829,-382.57,562.68,1437.13
14080,-3.8712,0.1227,-0.1832,-241.94,593.93,1374.63
14090,-3.8712,0.1207,-0.1838,-288.82,547.06,1296.51
14100,-3.8712,0.1184,-0.1827,-538.82,468.93,1312.13
14110,-3.8712,0.1176,-0.1820,-835.69,609.56,1374.63
14120,-3.8712,0.1173,-0.1842,-945.07,703.31,1312.13
14130,-3.8712,0.1166,-0.1874,-976.32,422.06,1265.26
14140,-3.8712,0.1172,-0.1901,-1070.07,15.81,1234.01
14150,-3.8712,0.1199,-0.1912,-991.94,-327.94,1218.32
14160,-3.8712,0.1216,-0.1886,-648.19,-468.57,1249.57
14170,-3.8712,0.1223,-0.1841,-429.44,-140.44,1265.20
14180,-3.8712,0.1244,-0.1816,-335.69,437.68,1359.01
14190,-3.8712,0.1262,-0.1821,-70.07,750.18,1359.01
14200,-3.8712,0.1243,-0.1827,164.31,687.74,1187.13
14210,-3.8712,0.1199,-0.1836,-85.69,609.56,1234.01
14220,-3.8712,0.1172,-0.1864,-648.19,500.18,1359.01
14230,-3.8712,0.1176,-0.1887,-991.94,140.81,1374.63
14240,-3.8712,0.1191,-0.1859,-945.07,-156.07,1249.57
14250,-3.8712,0.1199,-0.1840,-741.94,203.31,1296.51
14260,-3.8712,0.1195,-0.1876,-648.19,453.31,1359.01
14270,-3.8712,0.1201,-0.1897,-695.07,-15.44,1296.45
14280,-3.8712,0.1211,-0.1874,-616.94,-281.07,1437.07
14290,-3.8712,0.1208,-0.1844,-491.94,15.81,1468.38
14300,-3.8712,0.1206,-0.1823,-523.19,390.81,1343.38
14310,-3.8712,0.1206,-0.1812,-554.44,672.06,1296.51
14320,-3.8712,0.1198,-0.1814,-554.44,812.68,1405.88
14330,-3.8712,0.1189,-0.1814,-663.82,781.43,1562.13
14340,-3.8712,0.1193,-0.1824,-773.19,781.43,1562.13
14350,-3.8712,0.1200,-0.1857,-726.32,656.43,1374.63
14360,-3.8712,0.1190,-0.1881,-632.57,234.56,1327.76
14370,-3.8712,0.1173,-0.1886,-757.57,-77.94,1390.20
14380,-3.8712,0.1172,-0.1884,-976.32,-140.44,1405.82
14390,-3.8712,0.1193,-0.1866,-991.94,-109.19,1437.07
14400,-3.8712,0.1222,-0.1843,-726.32,109.56,1359.01
14410,-3.8712,0.1237,-0.1829,-351.32,406.43,1249.63
14420,-3.8712,0.1219,-0.1829,-163.82,593.93,1202.76
14430,-3.8712,0.1182,-0.1842,-382.57,593.93,1234.01
14440,-3.8712,0.1152,-0.1866,-866.94,422.06,1343.38
14450,-3.8712,0.1157,-0.1893,-1241.94,109.56,1265.26
14460,-3.8712,0.1226,-0.1885,-1179.44,-234.19,937.07
14470,-3.8712,0.1323,-0.1832,-304.44,-124.82,858.95
14480,-3.8712,0.1351,-0.1788,945.56,547.12,1155.88
14490,-3.8712,0.1274,-0.1786,1304.93,1109.62,1421.51
14500,-3.8712,0.1144,-0.1804,320.56,1140.87,1499.63
14510,-3.8712,0.1036,-0.1812,-1351.32,906.43,1562.13
14520,-3.8712,0.1000,-0.1815,1273.68,812.68,1718.38
14530,-3.8712,0.1021,-0.1825,804.93,765.81,1937.13
14540,-3.8712,0.1063,-0.1827,1070.56,640.81,1999.63
14550,-3.8712,0.1101,-0.1829,1617.43,609.56,1921.51
14560,-3.8712,0.1119,-0.1832,-1898.19,593.93,1827.76
14570,-3.8712,0.1122,-0.1837,-1663.82,547.06,1749.63
14580,-3.8712,0.1129,-0.1840,-1632.57,484.56,1687.13
14590,-3.8712,0.1143,-0.1838,-1538.82,453.31,1577.76
14600,-3.8712,0.1150,-0.1836,-1366.94,468.93,1421.51
14610,-3.8712,0.1143,-0.1836,-1273.19,500.18,1296.51
14620,-3.8712,0.1128,-0.1829,-1366.94,500.18,1280.88
14630,-3.8712,0.1117,-0.1824,-1554.44,593.93,1484.01
14640,-3.8712,0.1108,-0.1836,-1695.07,656.43,1749.63
14650,-3.8712,0.1108,-0.1853,-1804.44,500.18,1812.13
14660,-3.8712,0.1122,-0.1862,-1804.44,281.43,1609.01
14670,-3.8712,0.1157,-0.1866,-1632.57,172.06,1280.88
14680,-3.8712,0.1205,-0.1863,-1179.44,109.56,1093.38
14690,-3.8712,0.1228,-0.1854,-570.07,156.43,1046.51
14700,-3.8712,0.1200,-0.1843,-273.19,265.81,1218.38
14710,-3.8712,0.1125,-0.1827,-632.57,406.43,1562.13
14720,-3.8712,0.1057,-0.1808,-1585.69,609.56,1718.38
14730,-3.8712,0.1055,-0.1792,1539.31,859.56,1734.01
14740,-3.8712,0.1113,-0.1785,1508.06,1062.68,1765.26
14750,-3.8712,0.1174,-0.1791,-1741.94,1156.43,1687.13
14760,-3.8712,0.1191,-0.1807,-960.69,1078.31,1515.26
14770,-3.8712,0.1167,-0.1821,-741.94,875.18,1452.76
14780,-3.8712,0.1134,-0.1837,-1054.44,687.68,1452.76
14790,-3.8712,0.1110,-0.1846,-1476.32,484.56,1437.13
14800,-3.8712,0.1108,-0.1843,-1788.82,375.18,1421.51
14810,-3.8712,0.1128,-0.1836,-1804.44,406.43,1499.63
14820,-3.8712,0.1150,-0.1830,-1554.44,500.18,1546.51
14830,-3.8712,0.1163,-0.1825,-1273.19,578.31,1405.88
14840,-3.8712,0.1167,-0.1821,-1101.32,640.81,1327.76
14850,-3.8712,0.1160,-0.1829,-1054.44,687.68,1374.63
14860,-3.8712,0.1145,-0.1843,-1148.19,593.93,1374.63
14870,-3.8712,0.1143,-0.1853,-1335.69,406.43,1327.76
14880,-3.8712,0.1149,-0.1863,-1366.94,281.43,1359.01
14890,-3.8712,0.1162,-0.1863,-1288.82,156.43,1312.13
14900,-3.8712,0.1184,-0.1848,-1116.94,156.43,1202.76
14910,-3.8712,0.1189,-0.1833,-835.69,343.93,1265.26
14920,-3.8712,0.1157,-0.1829,-773.19,531.43,1390.26
14930,-3.8712,0.1116,-0.1833,-1179.44,593.93,1515.26
14940,-3.8712,0.1099,-0.1835,-1710.69,531.43,1593.38
14950,-3.8712,0.1110,-0.1832,-1929.44,515.81,1530.88
14960,-3.8712,0.1136,-0.1835,-1788.82,547.06,1437.13
14970,-3.8712,0.1162,-0.1838,-1445.07,515.81,1452.76
14980,-3.8712,0.1161,-0.1836,-1116.94,468.93,1530.88
14990,-3.8712,0.1138,-0.1827,-1132.57,500.18,1562.13
15000,-3.8712,0.1124,-0.1824,-1429.44,609.56,1593.38
15010,-3.8712,0.1129,-0.1830,-1601.32,656.43,1515.26
15020,-3.8712,0.1140,-0.1830,-1538.82,578.31,1280.88
15030,-3.8712,0.1144,-0.1818,-1398.19,578.31,1234.01
15040,-3.8712,0.1138,-0.1810,-1351.32,734.56,1405.88
15050,-3.8712,0.1130,-0.1819,-1429.44,828.31,1577.76
15060,-3.8712,0.1123,-0.1836,-1523.19,718.93,1702.76
15070,-3.8712,0.1115,-0.1844,-1616.94,500.18,1687.13
15080,-3.8712,0.1102,-0.1842,-1726.32,390.81,1624.63
15090,-3.8712,0.1099,-0.1830,-1882.57,422.06,1577.76
15100,-3.8712,0.1123,-0.1821,-1929.44,578.31,1515.26
15110,-3.8712,0.1155,-0.1819,-1616.94,687.68,1484.01
15120,-3.8712,0.1156,-0.1816,-1210.69,718.93,1499.63
15130,-3.8712,0.1127,-0.1814,-1195.07,750.18,1515.26
15140,-3.8712,0.1090,-0.1814,-1570.07,781.43,1530.88
15150,-3.8712,0.1079,-0.1819,1961.18,781.43,1577.76
15160,-3.8712,0.1097,-0.1827,1820.56,718.93,1577.76
15170,-3.8712,0.1132,-0.1833,-1945.07,609.56,1405.88
15180,-3.8712,0.1156,-0.1827,-1507.57,531.43,1265.26
15190,-3.8712,0.1151,-0.1814,-1195.07,609.56,1359.01
15200,-3.8712,0.1129,-0.1816,-1257.57,781.43,1499.63
15210,-3.8712,0.1113,-0.1827,-1538.82,750.18,1515.26
15220,-3.8712,0.1115,-0.1831,-1741.94,609.56,1609.01
15230,-3.8712,0.1128,-0.1827,-1726.32,562.68,1687.13
15240,-3.8712,0.1152,-0.1825,-1554.44,609.56,1546.51
15250,-3.8712,0.1169,-0.1823,-1241.94,640.81,1405.88
15260,-3.8712,0.1167,-0.1823,-1023.19,672.06,1437.13
15270,-3.8712,0.1149,-0.1827,-1054.44,672.06,1437.13
15280,-3.8712,0.1138,-0.1836,-1288.82,609.56,1452.76
15290,-3.8712,0.1141,-0.1840,-1429.44,500.18,1530.88
15300,-3.8712,0.1143,-0.1833,-1382.57,453.31,1484.01
15310,-3.8712,0.1130,-0.1818,-1366.94,531.43,1374.63
15320,-3.8712,0.1102,-0.1797,-1523.19,734.56,1437.13
15330,-3.8712,0.1077,-0.1786,-1882.57,1000.18,1687.13
15340,-3.8712,0.1071,-0.1803,1789.31,1140.81,1796.51
15350,-3.8712,0.1077,-0.1842,1711.18,922.06,1640.26
15360,-3.8712,0.1097,-0.1868,1789.31,422.06,1405.88
15370,-3.8712,0.1149,-0.1863,-1945.07,93.93,1343.38
15380,-3.8712,0.1218,-0.1840,-1288.82,156.43,1327.76
15390,-3.8712,0.1255,-0.1815,-398.19,453.31,1296.51
15400,-3.8712,0.1224,-0.1794,70.56,765.87,1327.76
15410,-3.8712,0.1154,-0.1771,-320.07,1031.43,1515.26
15420,-3.8712,0.1115,-0.1777,-1226.32,1328.31,1499.63
15430,-3.8712,0.1133,-0.1824,-1726.32,1250.18,1296.51
15440,-3.8712,0.1158,-0.1865,-1491.94,656.43,1562.13
15450,-3.8712,0.1180,-0.1880,-1163.82,125.18,1984.01
15460,-3.8712,0.1224,-0.1852,-882.57,-62.32,1952.70
15470,-3.8712,0.1296,-0.1791,-320.07,297.06,1702.76
15480,-3.8712,0.1334,-0.1718,601.81,1078.37,1655.88
15490,-3.8712,0.1300,-0.1630,1086.18,-1984.13,1796.51
15500,-3.8712,0.1229,-0.1545,648.68,-859.13,-1594.12
15510,-3.8712,0.1134,-0.1475,-257.57,218.93,-844.06
15520,-3.8712,0.0995,-0.1462,-1476.32,1125.18,-734.68
15530,-3.8712,0.0817,-0.1554,742.43,1281.43,-1234.68
15540,-3.8712,0.0680,-0.1685,-1538.82,109.50,-1969.06
15550,-3.8712,0.0637,-0.1760,711.18,-1562.38,1843.38
15560,-3.8712,0.0724,-0.1792,164.31,1468.87,1796.51
15570,-3.8712,0.0938,-0.1785,1273.68,1062.62,1280.88
15580,-3.8712,0.1123,-0.1758,8.06,1156.43,734.01
15590,-3.8712,0.1139,-0.1735,-1616.94,1500.18,530.88
15600,-3.8712,0.0988,-0.1674,-1413.82,1797.06,796.51
15610,-3.8712,0.0767,-0.1608,648.68,-1421.69,1312.13
15620,-3.8712,0.0623,-0.1591,1820.56,-578.00,1796.51
15630,-3.8712,0.0640,-0.1619,-23.19,-359.31,-1609.74
15640,-3.8712,0.0758,-0.1633,195.56,-718.63,-1031.62
15650,-3.8712,0.0857,-0.1633,1711.18,-906.13,-297.24
15660,-3.8711,0.0879,-0.1676,-1023.19,-906.13,234.01
15670,-3.8711,0.0891,-0.1736,-741.94,-1453.00,155.88
15680,-3.8712,0.0948,-0.1694,-585.69,1781.37,-15.99
15690,-3.8712,0.1028,-0.1570,148.68,-1687.32,-250.37
15700,-3.8712,0.1152,-0.1504,1164.31,-93.57,-344.12
15710,-3.8712,0.1334,-0.1527,-1241.94,750.18,-719.06
15720,-3.8712,0.1547,-0.1554,1086.18,453.37,-1672.18
15730,-3.8712,0.1755,-0.1492,-195.07,109.62,812.19
15740,-3.8713,0.1926,-0.1392,-1523.19,906.56,-750.31
15750,-3.8713,0.2007,-0.1320,664.31,-1812.13,-1578.43
15760,-3.8713,0.2026,-0.1295,1695.56,-890.26,-1812.81
15770,-3.8713,0.2062,-0.1379,1945.56,-577.76,-1265.93
15780,-3.8712,0.2041,-0.1538,-1601.32,-1655.88,140.32
15790,-3.8712,0.1863,-0.1647,-1866.94,312.87,1796.57
15800,-3.8712,0.1570,-0.1650,-148.19,-1077.82,-1219.12
15810,-3.8712,0.1299,-0.1603,101.81,-1124.69,-1484.74
15820,-3.8712,0.1187,-0.1561,633.06,-515.38,1515.26
15830,-3.8712,0.1274,-0.1531,-804.44,15.81,1359.07
15840,-3.8712,0.1481,-0.1486,320.56,406.49,1968.44
15850,-3.8712,0.1697,-0.1428,-1038.82,984.62,1968.44
15860,-3.8712,0.1858,-0.1414,1726.81,1719.06,843.44
15870,-3.8713,0.1909,-0.1459,-210.69,1906.56,-578.43
15880,-3.8713,0.1835,-0.1517,445.56,1328.49,-984.68
15890,-3.8712,0.1666,-0.1543,-507.57,578.43,77.82
15900,-3.8712,0.1484,-0.1545,1336.18,250.31,1437.19
15910,-3.8712,0.1405,-0.1549,-991.94,218.99,1890.32
15920,-3.8712,0.1471,-0.1564,1992.43,172.12,1780.94
15930,-3.8712,0.1583,-0.1571,-1163.82,-15.38,1702.76
15940,-3.8712,0.1624,-0.1569,273.68,-109.07,1687.13
15950,-3.8712,0.1565,-0.1561,789.31,-77.82,1624.63
15960,-3.8712,0.1460,-0.1537,39.31,15.93,1499.69
15970,-3.8712,0.1362,-0.1504,-1304.44,328.37,1437.19
15980,-3.8712,0.1322,-0.1499,1445.56,750.24,1702.82
15990,-3.8712,0.1355,-0.1511,929.93,812.74,-1937.81
16000,-3.8712,0.1418,-0.1489,1351.81,656.49,1968.44
16010,-3.8712,0.1459,-0.1453,-1835.69,937.74,1640.32
16020,-3.8712,0.1464,-0.1433,-1320.07,1406.49,1452.82
16030,-3.8712,0.1439,-0.1414,-1257.57,1656.49,1327.82
16040,-3.8712,0.1401,-0.1393,-1570.07,1906.49,1468.44
16050,-3.8712,0.1389,-0.1394,1945.56,-1827.88,1765.32
16060,-3.8712,0.1414,-0.1415,1789.31,-1843.51,1718.44
16070,-3.8712,0.1417,-0.1453,-1898.19,1890.87,1718.44
16080,-3.8712,0.1329,-0.1488,-1851.32,1406.49,-1906.56
16090,-3.8712,0.1177,-0.1490,1023.68,953.37,-1500.31
16100,-3.8712,0.1100,-0.1505,-929.44,922.06,-1390.93
16110,-3.8712,0.1171,-0.1523,-1913.82,734.56,-1453.43
16120,-3.8712,0.1335,-0.1545,-1007.57,500.18,-1656.56
16130,-3.8712,0.1495,-0.1544,1101.81,218.99,1812.19
16140,-3.8712,0.1545,-0.1509,-851.32,234.62,1218.44
16150,-3.8712,0.1486,-0.1487,-210.69,687.74,874.69
16160,-3.8712,0.1376,-0.1455,-976.32,968.99,1093.44
16170,-3.8712,0.1239,-0.1426,1617.43,1375.24,1702.82
16180,-3.8712,0.1119,-0.1423,-132.57,1750.18,1968.44
16190,-3.8712,0.1069,-0.1454,-1663.82,1781.43,-1734.68
16200,-3.8712,0.1075,-0.1467,1695.56,1390.81,-890.93
16210,-3.8712,0.1091,-0.1461,1773.68,1218.93,-469.06
16220,-3.8712,0.1110,-0.1471,1976.81,1297.06,-1094.06
16230,-3.8712,0.1117,-0.1476,-1788.82,1172.06,-1609.68
16240,-3.8712,0.1117,-0.1494,-1695.07,1109.56,-1578.43
16250,-3.8712,0.1167,-0.1519,-1695.07,875.18,-1625.31
16260,-3.8712,0.1255,-0.1508,-1054.44,562.68,-1859.68
16270,-3.8712,0.1339,-0.1467,70.56,703.37,1749.69
16280,-3.8712,0.1389,-0.1445,1148.68,1218.99,1546.57
16290,-3.8712,0.1355,-0.1455,1789.31,1500.24,1687.19
16300,-3.8712,0.1245,-0.1459,1351.81,1375.24,1999.69
16310,-3.8712,0.1149,-0.1466,-54.44,1328.31,-1906.56
16320,-3.8712,0.1110,-0.1494,-1288.82,1234.56,-1844.06
16330,-3.8712,0.1119,-0.1521,-1788.82,875.18,-1578.43
16340,-3.8712,0.1167,-0.1515,-1663.82,531.43,-1500.31
16350,-3.8712,0.1219,-0.1488,-1054.44,609.56,-1687.81
16360,-3.8712,0.1233,-0.1467,-382.57,953.31,-1906.56
16370,-3.8712,0.1204,-0.1459,-210.69,1218.93,-1875.31
16380,-3.8712,0.1176,-0.1475,-585.69,1328.31,-1781.56
16390,-3.8712,0.1188,-0.1488,-945.07,1125.18,-1797.18
16400,-3.8712,0.1219,-0.1483,-788.82,953.31,-1844.06
16410,-3.8712,0.1224,-0.1481,-382.57,1015.81,1952.82
16420,-3.8712,0.1217,-0.1490,-320.07,1047.06,1734.07
16430,-3.8712,0.1224,-0.1483,-413.82,922.06,1796.57
16440,-3.8712,0.1221,-0.1440,-320.07,1015.81,1999.69
16450,-3.8712,0.1190,-0.1418,-366.94,1562.68,-1906.56
16460,-3.8712,0.1150,-0.1440,-757.57,1843.93,-1828.43
16470,-3.8712,0.1112,-0.1469,-1273.19,1562.68,-1578.43
16480,-3.8712,0.1080,-0.1467,-1757.57,1203.31,-1437.81
16490,-3.8712,0.1072,-0.1445,1836.18,1218.93,-1547.18
16500,-3.8712,0.1094,-0.1431,1726.81,1500.18,-1750.31
16510,-3.8712,0.1139,-0.1431,-1991.94,1687.68,-1765.93
16520,-3.8712,0.1166,-0.1440,-1413.82,1687.68,-1578.43
16530,-3.8712,0.1133,-0.1464,-1070.07,1562.68,-1437.81
16540,-3.8712,0.1083,-0.1501,-1491.94,1265.81,-1453.43
16550,-3.8712,0.1089,-0.1519,1867.43,781.43,-1578.43
16560,-3.8712,0.1155,-0.1498,1945.56,562.68,-1890.93
16570,-3.8712,0.1222,-0.1461,-1210.69,828.31,1890.32
16580,-3.8712,0.1246,-0.1442,-351.32,1297.06,1999.69
16590,-3.8712,0.1212,-0.1450,-38.82,1547.06,-1672.18
16600,-3.8712,0.1139,-0.1462,-476.32,1437.68,-1453.43
16610,-3.8712,0.1071,-0.1460,-1413.82,1281.43,-1562.81
16620,-3.8712,0.1040,-0.1462,1711.18,1312.68,-1781.56
16630,-3.8712,0.1050,-0.1476,1320.56,1281.43,-1937.81
16640,-3.8712,0.1083,-0.1470,1445.56,1109.56,-1859.68
16650,-3.8712,0.1113,-0.1451,1867.43,1187.68,-1687.81
16660,-3.8712,0.1130,-0.1436,-1741.94,1422.06,-1875.31
16670,-3.8712,0.1133,-0.1411,-1523.19,1625.18,1999.69
16680,-3.8712,0.1116,-0.1385,-1491.94,1937.68,-1765.93
16690,-3.8712,0.1086,-0.1385,-1710.69,-1734.19,-1656.56
16700,-3.8712,0.1060,-0.1403,1914.31,-1734.19,-1609.68
16710,-3.8712,0.1050,-0.1418,1570.56,-1952.94,-1531.56
16720,-3.8712,0.1058,-0.1438,1445.56,1843.93,-1484.68
16730,-3.8712,0.1078,-0.1444,1554.93,1593.93,-1422.18
16740,-3.8712,0.1101,-0.1438,1804.93,1515.81,-1437.81
16750,-3.8712,0.1132,-0.1458,-1898.19,1593.93,-1672.18
16760,-3.8712,0.1162,-0.1489,-1507.57,1343.93,-1906.56
16770,-3.8712,0.1162,-0.1489,-1116.94,937.68,-1875.31
16780,-3.8712,0.1140,-0.1462,-1116.94,937.68,-1937.81
16790,-3.8712,0.1113,-0.1432,-1398.19,1281.43,-1906.56
16800,-3.8712,0.1102,-0.1403,-1741.94,1672.06,-1594.06
16810,-3.8712,0.1100,-0.1401,-1882.57,-1952.94,-1469.06
16820,-3.8712,0.1095,-0.1427,-1913.82,-1937.32,-1609.68
16830,-3.8712,0.1089,-0.1440,-1976.32,1734.56,-1734.68
16840,-3.8712,0.1080,-0.1433,1945.56,1562.68,-1828.43
16850,-3.8712,0.1072,-0.1425,1836.18,1656.43,-1937.81
16860,-3.8712,0.1083,-0.1417,1726.81,1765.81,-1922.18
16870,-3.8712,0.1115,-0.1396,1867.43,1859.56,-1640.93
16880,-3.8712,0.1129,-0.1360,-1726.32,-1874.82,-1359.68
16890,-3.8712,0.1093,-0.1326,-1538.82,-1406.07,-1234.68
16900,-3.8712,0.1036,-0.1326,1992.43,-968.57,-1203.43
16910,-3.8712,0.1010,-0.1344,1273.68,-968.57,-1156.56
16920,-3.8712,0.1034,-0.1340,929.93,-1202.94,-1203.43
16930,-3.8712,0.1075,-0.1382,1242.43,-1156.07,-1344.06
16940,-3.8712,0.1088,-0.1464,1773.68,-1687.32,-1187.81
16950,-3.8712,0.1078,-0.1462,1929.93,1265.81,-969.06
16960,-3.8712,0.1089,-0.1400,1804.93,1281.43,-1297.18
16970,-3.8712,0.1101,-0.1415,1945.56,-1921.69,-1797.18
16980,-3.8712,0.1094,-0.1508,-1898.19,1890.81,1999.69
16990,-3.8712,0.1101,-0.1534,-1991.94,703.31,1874.69
17000,-3.8712,0.1115,-0.1500,-1898.19,359.56,1827.82
17010,-3.8712,0.1127,-0.1478,-1726.32,797.06,1890.32
17020,-3.8712,0.1127,-0.1453,-1570.07,1078.31,1937.19
17030,-3.8712,0.1102,-0.1432,-1570.07,1406.43,1937.19
17040,-3.8712,0.1083,-0.1433,-1882.57,1672.06,-1969.06
17050,-3.8712,0.1093,-0.1439,1867.43,1656.43,-1781.56
17060,-3.8712,0.1088,-0.1428,1992.43,1578.31,-1625.31
17070,-3.8712,0.1042,-0.1404,1929.93,1718.93,-1484.68
17080,-3.8712,0.1005,-0.1396,1351.81,-1968.57,-1406.56
17090,-3.8712,0.1030,-0.1403,867.43,-1874.82,-1422.18
17100,-3.8712,0.1106,-0.1411,1195.56,-1952.94,-1562.81
17110,-3.8712,0.1169,-0.1425,-1835.69,1937.68,-1703.43
17120,-3.8712,0.1167,-0.1432,-1023.19,1765.81,-1719.06
17130,-3.8712,0.1108,-0.1422,-1054.44,1672.06,-1750.31
17140,-3.8712,0.1053,-0.1405,-1804.44,1797.06,-1781.56
17150,-3.8712,0.1038,-0.1393,1492.43,-1984.19,-1625.31
17160,-3.8712,0.1045,-0.1378,1289.31,-1827.94,-1500.31
17170,-3.8712,0.1049,-0.1370,1383.06,-1640.44,-1484.68
17180,-3.8712,0.1060,-0.1379,1429.93,-1531.07,-1390.93
17190,-3.8712,0.1079,-0.1390,1570.56,-1656.07,-1469.06
17200,-3.8712,0.1066,-0.1389,1820.56,-1796.69,-1687.81
17210,-3.8712,0.1022,-0.1387,1648.68,-1781.07,-1562.81
17220,-3.8712,0.0995,-0.1405,1086.18,-1749.82,-1453.43
17230,-3.8712,0.0997,-0.1426,742.43,-1984.19,-1500.31
17240,-3.8712,0.1019,-0.1412,773.68,1750.18,-1375.31
17250,-3.8712,0.1045,-0.1383,1054.93,1922.06,-1375.31
17260,-3.8712,0.1069,-0.1371,1383.06,-1702.94,-1578.43
17270,-3.8712,0.1095,-0.1367,1695.56,-1546.69,-1812.81
17280,-3.8712,0.1104,-0.1364,-1976.32,-1499.82,-1844.06
17290,-3.8712,0.1056,-0.1357,-1866.94,-1452.94,-1531.56
17300,-3.8712,0.0935,-0.1355,1523.68,-1374.82,-1234.68
17310,-3.8712,0.0823,-0.1370,-23.19,-1343.63,-1234.68
17320,-3.8712,0.0826,-0.1396,-1460.69,-1531.13,-1250.31
17330,-3.8712,0.0959,-0.1416,-1413.82,-1874.88,-1265.93
17340,-3.8712,0.1128,-0.1421,289.31,1875.18,-1375.31
17350,-3.8712,0.1222,-0.1428,-1554.44,1812.68,-1547.18
17360,-3.8712,0.1184,-0.1423,-351.32,1718.93,-1781.56
17370,-3.8712,0.1056,-0.1423,-835.69,1781.43,-1734.68
17380,-3.8712,0.0941,-0.1429,1523.68,1781.43,-1531.56
17390,-3.8712,0.0925,-0.1436,54.93,1703.31,-1562.81
17400,-3.8712,0.0986,-0.1432,-148.19,1625.12,-1625.31
17410,-3.8712,0.1036,-0.1405,633.06,1672.06,-1531.56
17420,-3.8712,0.1045,-0.1392,1273.68,-1984.19,-1562.81
17430,-3.8712,0.1030,-0.1392,1383.06,-1812.32,-1609.68
17440,-3.8712,0.1022,-0.1400,1195.56,-1812.32,-1515.93
17450,-3.8712,0.1021,-0.1407,1086.18,-1921.69,-1578.43
17460,-3.8712,0.1003,-0.1407,1070.56,1984.56,-1625.31
17470,-3.8712,0.0980,-0.1405,851.81,1984.56,-1547.18
17480,-3.8712,0.0991,-0.1407,554.93,-1984.19,-1562.81
17490,-3.8712,0.1019,-0.1401,695.56,1984.56,-1609.68
17500,-3.8712,0.1038,-0.1384,1054.93,-1937.32,-1469.06
17510,-3.8712,0.1050,-0.1383,1289.31,-1718.57,-1375.31
17520,-3.8712,0.1022,-0.1388,1445.56,-1702.94,-1328.43
17530,-3.8712,0.0928,-0.1382,1086.18,-1765.44,-1265.93
17540,-3.8712,0.0870,-0.1373,-116.94,-1687.38,-1281.56
17550,-3.8712,0.0927,-0.1370,-851.32,-1578.00,-1437.81
17560,-3.8712,0.1018,-0.1366,-132.57,-1531.13,-1687.81
17570,-3.8712,0.1053,-0.1375,1039.31,-1484.19,-1656.56
17580,-3.8712,0.1022,-0.1395,1492.43,-1593.57,-1562.81
17590,-3.8712,0.0966,-0.1417,1086.18,-1859.19,-1469.06
17600,-3.8712,0.0934,-0.1431,367.43,1859.56,-1328.43
17610,-3.8712,0.0946,-0.1416,-38.82,1687.62,-1265.93
17620,-3.8712,0.0974,-0.1388,117.43,1875.18,-1359.68
17630,-3.8712,0.0996,-0.1379,476.81,-1765.44,-1453.43
17640,-3.8712,0.1012,-0.1393,758.06,-1656.07,-1406.56
17650,-3.8712,0.1023,-0.1417,961.18,-1827.94,-1375.31
17660,-3.8712,0.1006,-0.1421,1101.81,1859.56,-1453.43
17670,-3.8712,0.0968,-0.1403,883.06,1812.68,-1640.93
17680,-3.8712,0.0920,-0.1399,398.68,-1952.94,-1640.93
17690,-3.8712,0.0895,-0.1409,-210.69,-1906.13,-1500.31
17700,-3.8712,0.0931,-0.1422,-538.82,1968.87,-1469.06
17710,-3.8712,0.0995,-0.1417,-70.07,1797.00,-1406.56
17720,-3.8712,0.1027,-0.1406,742.43,1859.56,-1453.43
17730,-3.8712,0.1005,-0.1406,1148.68,-1999.82,-1562.81
17740,-3.8712,0.0972,-0.1405,867.43,-1999.82,-1562.81
17750,-3.8712,0.0967,-0.1398,445.56,-1984.19,-1547.18
17760,-3.8712,0.0974,-0.1392,383.06,-1890.44,-1547.18
17770,-3.8712,0.0966,-0.1392,476.81,-1812.32,-1390.93
17780,-3.8712,0.0948,-0.1384,367.43,-1812.32,-1250.31
17790,-3.8712,0.0951,-0.1381,148.68,-1718.57,-1281.56
17800,-3.8712,0.0980,-0.1395,179.93,-1671.69,-1406.56
17810,-3.8712,0.1000,-0.1406,554.93,-1859.19,-1390.93
17820,-3.8712,0.0978,-0.1405,804.93,-1999.82,-1390.93
17830,-3.8712,0.0944,-0.1395,523.68,-1984.19,-1406.56
17840,-3.8712,0.0945,-0.1390,86.18,-1859.19,-1344.06
17850,-3.8712,0.0995,-0.1394,101.81,-1796.69,-1422.18
17860,-3.8712,0.1040,-0.1395,742.43,-1843.57,-1547.18
17870,-3.8712,0.1024,-0.1393,1320.56,-1859.19,-1531.56
17880,-3.8712,0.0963,-0.1390,1117.43,-1827.94,-1359.68
17890,-3.8712,0.0909,-0.1395,336.18,-1796.69,-1328.43
17900,-3.8712,0.0896,-0.1404,-351.32,-1859.25,-1453.43
17910,-3.8712,0.0917,-0.1395,-523.19,-1968.63,-1453.43
17920,-3.8712,0.0952,-0.1377,-257.57,-1859.25,-1390.93
17930,-3.8712,0.0991,-0.1372,195.56,-1624.82,-1390.93
17940,-3.8712,0.1028,-0.1395,695.56,-1562.32,-1406.56
17950,-3.8712,0.1066,-0.1438,1164.31,-1859.19,-1469.06
17960,-3.8712,0.1090,-0.1449,1648.68,1593.93,-1609.68
17970,-3.8712,0.1062,-0.1426,1961.18,1453.31,-1703.43
17980,-3.8712,0.1000,-0.1409,1601.81,1750.18,-1719.06
17990,-3.8712,0.0958,-0.1399,804.93,1968.93,-1734.68
18000,-3.8712,0.0947,-0.1387,273.68,-1906.07,-1594.06
18010,-3.8712,0.0950,-0.1385,133.06,-1749.82,-1437.81
18020,-3.8712,0.0969,-0.1409,164.31,-1734.19,-1344.06
18030,-3.8712,0.1012,-0.1428,414.31,1968.93,-1265.93
18040,-3.8712,0.1061,-0.1438,961.18,1718.93,-1375.31
18050,-3.8712,0.1083,-0.1437,1586.18,1593.93,-1672.18
18060,-3.8712,0.1044,-0.1422,1867.43,1609.56,-1828.43
18070,-3.8712,0.0955,-0.1401,1367.43,1797.06,-1703.43
18080,-3.8712,0.0891,-0.1394,226.81,-1937.32,-1453.43
18090,-3.8712,0.0907,-0.1398,-585.69,-1843.63,-1265.93
18100,-3.8712,0.0981,-0.1398,-382.57,-1890.50,-1344.06
18110,-3.8712,0.1047,-0.1406,570.56,-1890.44,-1562.81
18120,-3.8712,0.1055,-0.1418,1414.31,-1999.82,-1640.93
18130,-3.8712,0.1013,-0.1421,1508.06,1843.93,-1500.31
18140,-3.8712,0.0967,-0.1412,976.81,1812.68,-1312.81
18150,-3.8712,0.0947,-0.1400,383.06,1922.06,-1281.56
18160,-3.8712,0.0956,-0.1394,133.06,-1921.69,-1297.18
18170,-3.8712,0.0975,-0.1395,242.43,-1843.57,-1234.68
18180,-3.8712,0.0996,-0.1411,492.43,-1859.19,-1359.68
18190,-3.8712,0.1005,-0.1429,758.06,1937.68,-1500.31
18200,-3.8712,0.0991,-0.1420,867.43,1703.31,-1500.31
18210,-3.8712,0.0969,-0.1398,695.56,1828.31,-1484.68
18220,-3.8712,0.0966,-0.1394,414.31,-1890.44,-1547.18
18230,-3.8712,0.0975,-0.1394,367.43,-1843.57,-1578.43
18240,-3.8712,0.0979,-0.1385,492.43,-1843.57,-1422.18
18250,-3.8712,0.0984,-0.1389,539.31,-1734.19,-1437.81
18260,-3.8712,0.0989,-0.1405,601.81,-1781.07,-1531.56
18270,-3.8712,0.0973,-0.1400,664.31,-1984.19,-1312.81
18280,-3.8712,0.0963,-0.1390,461.18,-1921.69,-1187.81
18290,-3.8712,0.0985,-0.1398,336.18,-1796.69,-1265.93
18300,-3.8712,0.0996,-0.1403,617.43,-1890.44,-1297.18
18310,-3.8712,0.0966,-0.1406,758.06,-1952.94,-1297.18
18320,-3.8712,0.0931,-0.1410,367.43,-1999.82,-1328.43
18330,-3.8712,0.0936,-0.1404,-70.07,1953.25,-1344.06
18340,-3.8712,0.0986,-0.1392,-7.57,-1968.63,-1406.56
18350,-3.8712,0.1034,-0.1387,633.06,-1812.32,-1547.18
18360,-3.8712,0.1031,-0.1399,1242.43,-1749.82,-1656.56
18370,-3.8712,0.0983,-0.1416,1211.18,-1906.07,-1640.93
18380,-3.8712,0.0936,-0.1422,586.18,1875.18,-1469.06
18390,-3.8712,0.0935,-0.1421,-7.57,1797.00,-1406.56
18400,-3.8712,0.0968,-0.1411,-23.19,1812.62,-1437.81
18410,-3.8712,0.0990,-0.1394,398.68,1937.68,-1406.56
18420,-3.8712,0.0989,-0.1385,679.93,-1843.57,-1469.06
18430,-3.8712,0.0991,-0.1396,664.31,-1734.19,-1515.93
18440,-3.8712,0.1013,-0.1410,695.56,-1874.82,-1484.68
18450,-3.8712,0.1017,-0.1411,976.81,1953.31,-1437.81
18460,-3.8712,0.0972,-0.1399,1023.68,1937.68,-1422.18
18470,-3.8712,0.0917,-0.1385,445.56,-1906.07,-1359.68
18480,-3.8712,0.0906,-0.1379,-257.57,-1734.25,-1328.43
18490,-3.8712,0.0950,-0.1383,-398.19,-1656.13,-1375.31
18500,-3.8712,0.1022,-0.1405,164.31,-1702.94,-1453.43
18510,-3.8712,0.1061,-0.1431,1086.18,-1984.19,-1562.81
18520,-3.8712,0.1023,-0.1440,1586.18,1687.68,-1609.68
18530,-3.8712,0.0958,-0.1434,1101.81,1562.68,-1531.56
18540,-3.8712,0.0935,-0.1415,273.68,1640.81,-1469.06
18550,-3.8712,0.0951,-0.1383,-23.19,1890.75,-1531.56
18560,-3.8712,0.0980,-0.1361,179.93,-1702.94,-1578.43
18570,-3.8712,0.0996,-0.1376,554.93,-1421.69,-1515.93
18580,-3.8712,0.0978,-0.1409,758.06,-1609.19,-1344.06
18590,-3.8712,0.0945,-0.1429,523.68,1968.93,-1203.43
18600,-3.8712,0.0935,-0.1437,101.81,1703.31,-1219.06
18610,-3.8712,0.0969,-0.1436,-23.19,1609.50,-1484.68
18620,-3.8712,0.1036,-0.1421,414.31,1625.18,-1703.43
18630,-3.8712,0.1071,-0.1401,1273.68,1812.68,-1672.18
18640,-3.8712,0.1033,-0.1396,1711.18,-1937.32,-1656.56
18650,-3.8712,0.0969,-0.1399,1226.81,-1874.82,-1578.43
18660,-3.8712,0.0945,-0.1393,414.31,-1906.07,-1469.06
18670,-3.8712,0.0947,-0.1378,101.81,-1827.94,-1453.43
18680,-3.8712,0.0927,-0.1364,133.06,-1640.44,-1359.68
18690,-3.8712,0.0897,-0.1367,-132.57,-1453.00,-1250.31
18700,-3.8712,0.0917,-0.1383,-507.57,-1499.88,-1234.68
18710,-3.8712,0.0995,-0.1395,-257.57,-1703.00,-1469.06
18720,-3.8712,0.1068,-0.1400,742.43,-1859.19,-1797.18
18730,-3.8712,0.1062,-0.1390,1679.93,-1921.69,-1703.43
18740,-3.8712,0.0984,-0.1372,1601.81,-1796.69,-1328.43
18750,-3.8712,0.0920,-0.1365,601.81,-1562.32,-1125.31
18760,-3.8712,0.0938,-0.1360,-210.69,-1468.63,-1140.93
18770,-3.8712,0.0999,-0.1354,8.06,-1406.07,-1219.06
18780,-3.8712,0.1013,-0.1351,789.31,-1327.94,-1187.81
18790,-3.8712,0.0973,-0.1372,976.81,-1296.69,-1297.18
18800,-3.8712,0.0922,-0.1404,461.18,-1562.32,-1469.06
18810,-3.8712,0.0903,-0.1412,-195.07,-1968.63,-1344.06
18820,-3.8712,0.0925,-0.1406,-429.44,1922.00,-1172.18
18830,-3.8712,0.0948,-0.1392,-148.19,-1999.88,-953.43
18840,-3.8712,0.0952,-0.1364,148.68,-1812.32,-937.81
18850,-3.8712,0.0964,-0.1362,195.56,-1452.94,-1515.93
18860,-3.8712,0.0979,-0.1372,351.81,-1437.32,-1734.68
18870,-3.8712,0.0957,-0.1351,539.31,-1562.32,-1359.68
18880,-3.8712,0.0906,-0.1335,258.06,-1296.69,-1172.18
18890,-3.8712,0.0874,-0.1365,-398.19,-1093.63,-1297.18
18900,-3.8712,0.0885,-0.1404,-804.44,-1468.63,-1265.93
18910,-3.8712,0.0903,-0.1412,-663.82,-1968.63,-1031.56
18920,-3.8712,0.0916,-0.1382,-429.44,1922.00,-1015.93
18930,-3.8712,0.0934,-0.1349,-273.19,-1687.38,-1109.68
18940,-3.8712,0.0941,-0.1357,-38.82,-1265.50,-1140.93
18950,-3.8712,0.0929,-0.1385,54.93,-1374.82,-1297.18
18960,-3.8712,0.0923,-0.1399,-101.32,-1734.25,-1484.68
18970,-3.8712,0.0931,-0.1403,-179.44,-1906.13,-1515.93
18980,-3.8712,0.0938,-0.1405,-70.07,-1953.00,-1469.06
18990,-3.8712,0.0922,-0.1400,8.06,-1984.19,-1500.31
19000,-3.8712,0.0898,-0.1390,-195.07,-1921.75,-1578.43
19010,-3.8712,0.0898,-0.1375,-491.94,-1796.75,-1562.81
19020,-3.8712,0.0914,-0.1359,-491.94,-1593.63,-1484.68
19030,-3.8712,0.0946,-0.1359,-288.82,-1390.50,-1437.81
19040,-3.8712,0.0964,-0.1353,117.43,-1390.44,-1328.43
19050,-3.8712,0.0940,-0.1332,351.81,-1312.32,-1172.18
19060,-3.8712,0.0895,-0.1318,39.31,-1046.69,-1187.81
19070,-3.8712,0.0861,-0.1313,-538.82,-874.88,-1265.93
19080,-3.8712,0.0854,-0.1307,-976.32,-812.38,-1187.81
19090,-3.8712,0.0886,-0.1313,-1054.44,-734.25,-1187.81
19100,-3.8712,0.0920,-0.1333,-648.19,-812.38,-1281.56
19110,-3.8712,0.0923,-0.1349,-210.69,-1062.38,-1265.93
19120,-3.8712,0.0912,-0.1367,-179.44,-1265.50,-1109.68
19130,-3.8712,0.0913,-0.1379,-320.07,-1499.88,-1047.18
19140,-3.8712,0.0922,-0.1357,-304.44,-1656.13,-1062.81
19150,-3.8712,0.0941,-0.1337,-195.07,-1374.88,-1109.68
19160,-3.8712,0.0968,-0.1346,54.93,-1109.19,-1265.93
19170,-3.8712,0.0955,-0.1344,398.68,-1234.19,-1359.68
19180,-3.8712,0.0897,-0.1331,226.81,-1202.94,-1297.18
19190,-3.8712,0.0846,-0.1332,-507.57,-1031.13,-1187.81
19200,-3.8712,0.0841,-0.1335,-1163.82,-1046.75,-1078.43
19210,-3.8712,0.0891,-0.1349,-1226.32,-1093.63,-1203.43
19220,-3.8712,0.0953,-0.1377,-585.69,-1265.50,-1359.68
19230,-3.8712,0.0957,-0.1384,211.18,-1624.82,-1328.43
19240,-3.8712,0.0872,-0.1360,258.06,-1718.57,-1234.68
19250,-3.8712,0.0775,-0.1334,-835.69,-1406.13,-1219.06
19260,-3.8712,0.0768,-0.1317,1929.93,-1078.00,-1250.31
19270,-3.8712,0.0837,-0.1293,1836.18,-859.25,-1140.93
19280,-3.8712,0.0894,-0.1270,-1273.19,-546.75,-1094.06
19290,-3.8712,0.0909,-0.1271,-554.44,-249.88,-1031.56
19300,-3.8712,0.0892,-0.1294,-351.32,-265.50,-969.06
19310,-3.8712,0.0858,-0.1316,-570.07,-562.38,-969.06
19320,-3.8712,0.0864,-0.1338,-1007.57,-843.63,-984.68
19330,-3.8712,0.0898,-0.1360,-929.44,-1124.88,-1140.93
19340,-3.8712,0.0909,-0.1362,-491.94,-1406.13,-1406.56
19350,-3.8712,0.0892,-0.1346,-351.32,-1437.38,-1422.18
19360,-3.8712,0.0879,-0.1335,-570.07,-1234.25,-1187.81
19370,-3.8712,0.0885,-0.1333,-741.94,-1093.63,-1140.93
19380,-3.8712,0.0906,-0.1322,-663.82,-1062.38,-1312.81
19390,-3.8712,0.0919,-0.1315,-398.19,-921.75,-1375.31
19400,-3.8712,0.0908,-0.1326,-226.32,-828.00,-1109.68
19410,-3.8712,0.0876,-0.1338,-366.94,-968.63,-1062.81
19420,-3.8712,0.0847,-0.1338,-773.19,-1124.88,-1156.56
19430,-3.8712,0.0853,-0.1332,-1148.19,-1124.88,-1031.56
19440,-3.8712,0.0909,-0.1335,-1070.07,-1046.75,-1094.06
19450,-3.8712,0.0952,-0.1338,-351.32,-1093.63,-1437.81
19460,-3.8712,0.0940,-0.1329,195.56,-1124.82,-1609.68
19470,-3.8712,0.0925,-0.1331,39.31,-1015.44,-1547.18
19480,-3.8712,0.0919,-0.1324,-148.19,-1031.13,-1500.31
19490,-3.8712,0.0892,-0.1300,-226.32,-953.00,-1359.68
19500,-3.8712,0.0858,-0.1288,-570.07,-640.50,-1078.43
19510,-3.8712,0.0852,-0.1302,-1007.57,-484.25,-969.06
19520,-3.8712,0.0883,-0.1315,-1085.69,-671.75,-1031.56
19530,-3.8712,0.0924,-0.1309,-695.07,-828.00,-969.06
19540,-3.8712,0.0951,-0.1306,-163.82,-749.88,-1047.18
19550,-3.8712,0.0936,-0.1310,179.93,-718.57,-1344.06
19560,-3.8712,0.0885,-0.1310,-7.57,-765.50,-1375.31
19570,-3.8712,0.0851,-0.1321,-663.82,-765.50,-1187.81
19580,-3.8712,0.0856,-0.1335,-1101.32,-906.13,-1140.93
19590,-3.8712,0.0881,-0.1335,-1038.82,-1093.63,-1234.68
19600,-3.8712,0.0902,-0.1331,-710.69,-1093.63,-1359.68
19610,-3.8712,0.0890,-0.1327,-445.07,-1031.13,-1422.18
19620,-3.8712,0.0858,-0.1322,-601.32,-984.25,-1422.18
19630,-3.8712,0.0853,-0.1315,-1007.57,-921.75,-1359.68
19640,-3.8712,0.0880,-0.1304,-1070.07,-828.00,-1203.43
19650,-3.8712,0.0890,-0.1295,-726.32,-687.38,-1047.18
19660,-3.8712,0.0890,-0.1300,-601.32,-578.00,-1094.06
19670,-3.8712,0.0911,-0.1311,-601.32,-640.50,-1265.93
19680,-3.8712,0.0909,-0.1309,-335.69,-781.13,-1265.93
19690,-3.8712,0.0858,-0.1309,-351.32,-749.88,-1156.56
19700,-3.8712,0.0808,-0.1313,-1007.57,-749.88,-1094.06
19710,-3.8712,0.0800,-0.1309,-1648.19,-812.38,-1156.56
19720,-3.8712,0.0846,-0.1306,-1757.57,-749.88,-1265.93
19730,-3.8712,0.0934,-0.1313,-1163.82,-718.63,-1234.68
19740,-3.8712,0.0990,-0.1317,-38.82,-812.38,-1234.68
19750,-3.8712,0.0947,-0.1296,679.93,-859.19,-1125.31
19760,-3.8712,0.0846,-0.1282,133.06,-593.57,-906.56
19770,-3.8712,0.0778,-0.1292,-1163.82,-406.13,-844.06
19780,-3.8712,0.0792,-0.1313,1961.18,-531.13,-922.18
19790,-3.8712,0.0870,-0.1334,-1851.32,-812.38,-1062.81
19800,-3.8712,0.0946,-0.1342,-851.32,-1078.00,-1219.06
19810,-3.8712,0.0950,-0.1337,117.43,-1171.69,-1187.81
19820,-3.8712,0.0896,-0.1327,164.31,-1109.19,-1109.68
19830,-3.8712,0.0873,-0.1326,-523.19,-984.25,-1203.43
19840,-3.8712,0.0916,-0.1331,-820.07,-968.63,-1297.18
19850,-3.8712,0.0947,-0.1327,-273.19,-1031.13,-1406.56
19860,-3.8712,0.0917,-0.1322,133.06,-984.19,-1375.31
19870,-3.8712,0.0844,-0.1333,-257.57,-921.75,-1265.93
19880,-3.8712,0.0797,-0.1345,-1195.07,-1062.38,-1265.93
19890,-3.8712,0.0814,-0.1337,-1788.82,-1218.63,-1109.68
19900,-3.8712,0.0858,-0.1323,-1570.07,-1109.25,-1047.18
19910,-3.8712,0.0892,-0.1324,-1007.57,-937.38,-1234.68
19920,-3.8712,0.0914,-0.1320,-570.07,-953.00,-1390.93
19930,-3.8712,0.0914,-0.1301,-288.82,-890.50,-1312.81
19940,-3.8712,0.0901,-0.1298,-288.82,-656.13,-1125.31
19950,-3.8712,0.0885,-0.1304,-460.69,-609.25,-1125.31
19960,-3.8712,0.0883,-0.1311,-663.82,-687.38,-1156.56
19970,-3.8712,0.0891,-0.1333,-695.07,-781.13,-1281.56
19980,-3.8712,0.0870,-0.1354,-585.69,-1062.38,-1328.43
19990,-3.8712,0.0825,-0.1355,-851.32,-1328.00,-1156.56
20000,-3.8712,0.0822,-0.1340,-1429.44,-1343.63,-1109.68
20010,-3.8712,0.0853,-0.1312,-1476.32,-1156.13,-1344.06
20020,-3.8712,0.0878,-0.1276,-1070.07,-796.75,-1469.06
20030,-3.8712,0.0898,-0.1246,-757.57,-328.00,-1344.06
20040,-3.8712,0.0905,-0.1243,-491.94,47.00,-1031.49
20050,-3.8712,0.0879,-0.1276,-413.82,93.87,-687.74
20060,-3.8712,0.0852,-0.1324,-741.94,-328.00,-578.43
20070,-3.8712,0.0848,-0.1359,-1085.69,-953.00,-781.56
20080,-3.8712,0.0847,-0.1356,-1132.57,-1390.50,-1078.43
20090,-3.8712,0.0856,-0.1323,-1148.19,-1359.25,-1203.43
20100,-3.8712,0.0901,-0.1299,-1038.82,-937.38,-1312.81
20110,-3.8712,0.0923,-0.1294,-460.69,-624.88,-1312.81
20120,-3.8712,0.0891,-0.1298,-179.44,-562.38,-1047.18
20130,-3.8712,0.0862,-0.1311,-585.69,-609.25,-969.06
20140,-3.8712,0.0869,-0.1331,-960.69,-781.13,-1062.81
20150,-3.8712,0.0885,-0.1342,-866.94,-1031.13,-1187.81
20160,-3.8712,0.0873,-0.1339,-663.82,-1171.75,-1390.93
20170,-3.8712,0.0826,-0.1318,-820.07,-1140.50,-1562.81
20180,-3.8712,0.0800,-0.1290,-1413.82,-874.88,-1469.06
20190,-3.8712,0.0808,-0.1277,-1757.57,-515.50,-1094.06
20200,-3.8712,0.0844,-0.1288,-1648.19,-343.63,-844.06
20210,-3.8712,0.0908,-0.1327,-1195.07,-484.25,-797.18
20220,-3.8712,0.0983,-0.1372,-366.94,-984.25,-1078.43
20230,-3.8712,0.1014,-0.1393,586.18,-1562.32,-1500.31
20240,-3.8712,0.0959,-0.1389,992.43,-1827.94,-1734.68
20250,-3.8712,0.0854,-0.1375,289.31,-1781.07,-1656.56
20260,-3.8712,0.0785,-0.1373,-1054.44,-1593.63,-1469.06
20270,-3.8712,0.0795,-0.1375,-1945.07,-1578.00,-1297.18
20280,-3.8712,0.0870,-0.1351,-1820.07,-1593.63,-1156.56
20290,-3.8712,0.0946,-0.1329,-851.32,-1296.75,-1140.93
20300,-3.8712,0.0959,-0.1327,117.43,-1015.44,-1281.56
20310,-3.8712,0.0909,-0.1329,289.31,-984.19,-1328.43
20320,-3.8712,0.0834,-0.1334,-351.32,-1015.50,-1234.68
20330,-3.8712,0.0791,-0.1324,-1320.07,-1078.00,-1140.93
20340,-3.8712,0.0797,-0.1298,-1866.94,-953.00,-1094.06
20350,-3.8712,0.0823,-0.1278,-1788.82,-609.25,-1047.18
20360,-3.8712,0.0857,-0.1287,-1460.69,-359.25,-1125.31
20370,-3.8712,0.0903,-0.1318,-1023.19,-468.63,-1297.18
20380,-3.8712,0.0928,-0.1334,-429.44,-874.88,-1297.18
20390,-3.8712,0.0894,-0.1302,-116.94,-1078.00,-1094.06
20400,-3.8712,0.0822,-0.1272,-554.44,-671.75,-844.06
20410,-3.8712,0.0774,-0.1281,-1476.32,-281.13,-719.06
20420,-3.8712,0.0776,-0.1272,1914.31,-390.50,-969.06
20430,-3.8712,0.0814,-0.1255,1945.56,-281.13,-1109.68
20440,-3.8712,0.0880,-0.1282,-1570.07,-62.38,-1047.18
20450,-3.8712,0.0930,-0.1339,-726.32,-406.13,-1187.81
20460,-3.8712,0.0916,-0.1370,-85.69,-1140.50,-1344.06
20470,-3.8712,0.0862,-0.1364,-273.19,-1531.13,-1328.43
20480,-3.8712,0.0842,-0.1360,-960.69,-1453.00,-1281.56
20490,-3.8712,0.0881,-0.1350,-1210.69,-1406.13,-1281.56
20500,-3.8712,0.0917,-0.1324,-710.69,-1281.13,-1187.81
20510,-3.8712,0.0879,-0.1307,-257.57,-953.00,-1172.18
20520,-3.8712,0.0787,-0.1312,-741.94,-734.25,-1250.31
20530,-3.8712,0.0736,-0.1326,-1913.82,-796.75,-1250.31
20540,-3.8712,0.0780,-0.1338,1429.93,-968.63,-1265.93
20550,-3.8712,0.0864,-0.1340,1992.43,-1124.88,-1219.06
20560,-3.8712,0.0911,-0.1323,-929.44,-1156.13,-1187.81
20570,-3.8712,0.0903,-0.1310,-335.69,-937.38,-1172.18
20580,-3.8712,0.0874,-0.1317,-429.44,-765.50,-1187.81
20590,-3.8712,0.0831,-0.1312,-804.44,-859.25,-1250.31
20600,-3.8712,0.0780,-0.1285,-1351.32,-796.75,-1203.43
20610,-3.8712,0.0765,-0.1267,1992.43,-453.00,-1109.68
20620,-3.8712,0.0791,-0.1274,1804.93,-218.63,-781.56
20630,-3.8712,0.0796,-0.1293,-1866.94,-312.38,-547.18
20640,-3.8712,0.0763,-0.1294,-1804.44,-546.75,-734.68
20650,-3.8712,0.0773,-0.1312,1773.68,-562.38,-859.68
20660,-3.8712,0.0839,-0.1340,1898.68,-796.75,-640.93
20670,-3.8712,0.0883,-0.1321,-1257.57,-1156.13,-922.18
20680,-3.8712,0.0897,-0.1283,-695.07,-906.13,-1328.43
20690,-3.8712,0.0898,-0.1298,-507.57,-421.75,-1078.43
20700,-3.8712,0.0870,-0.1328,-491.94,-609.25,-1078.43
20710,-3.8712,0.0841,-0.1321,-851.32,-999.88,-1265.93
20720,-3.8712,0.0809,-0.1348,-1226.32,-906.13,-1109.68
20730,-3.8712,0.0754,-0.1361,-1632.57,-1249.88,-750.31
20740,-3.8712,0.0695,-0.1321,1664.31,-1421.75,-1062.81
20750,-3.8712,0.0714,-0.1315,898.68,-906.13,-1719.06
20760,-3.8712,0.0824,-0.1329,1148.68,-828.00,-1656.56
20770,-3.8712,0.0930,-0.1324,-1445.07,-1015.50,-1359.68
20780,-3.8712,0.0968,-0.1323,-85.69,-953.00,-1344.06
20790,-3.8712,0.0938,-0.1328,398.68,-937.32,-1234.68
20800,-3.8712,0.0863,-0.1320,8.06,-999.82,-1125.31
20810,-3.8712,0.0780,-0.1309,-945.07,-890.50,-1140.93
20820,-3.8712,0.0743,-0.1300,1992.43,-749.88,-1203.43
20830,-3.8712,0.0781,-0.1294,1523.68,-640.50,-1265.93
20840,-3.8712,0.0870,-0.1302,-1991.94,-562.38,-1156.56
20850,-3.8712,0.0953,-0.1337,-851.32,-671.75,-1047.18
20860,-3.8712,0.0978,-0.1373,211.18,-1109.19,-1140.93
20870,-3.8712,0.0914,-0.1379,523.68,-1577.94,-1422.18
20880,-3.8712,0.0791,-0.1354,-288.82,-1656.13,-1547.18
20890,-3.8712,0.0706,-0.1329,-1866.94,-1328.00,-1312.81
20900,-3.8712,0.0721,-0.1324,1039.31,-1015.50,-1187.81
20910,-3.8712,0.0792,-0.1304,1242.43,-953.00,-1156.56
20920,-3.8712,0.0857,-0.1261,-1851.32,-687.38,-1187.81
20930,-3.8712,0.0896,-0.1245,-1023.19,-140.50,-1219.06
20940,-3.8712,0.0856,-0.1249,-523.19,62.62,-1093.99
20950,-3.8712,0.0730,-0.1267,-1038.82,15.75,-984.62
20960,-3.8712,0.0616,-0.1302,1351.81,-218.63,-859.68
20970,-3.8712,0.0588,-0.1295,-101.32,-671.81,-719.06
20980,-3.8712,0.0641,-0.1257,-460.69,-578.06,-515.93
20990,-3.8712,0.0728,-0.1245,211.18,-93.63,-484.68
21000,-3.8712,0.0815,-0.1266,1320.56,62.62,-875.24
21010,-3.8712,0.0858,-0.1290,-1554.44,-203.00,-1312.81
21020,-3.8712,0.0823,-0.1311,-1007.57,-515.50,-1312.81
21030,-3.8712,0.0737,-0.1318,-1460.69,-781.13,-1078.43
21040,-3.8712,0.0656,-0.1293,1445.56,-874.88,-828.43
21050,-3.8712,0.0637,-0.1255,398.68,-546.75,-672.18
21060,-3.8712,0.0707,-0.1244,164.31,-62.38,-656.56
21070,-3.8712,0.0815,-0.1260,1054.93,78.25,-781.49
21080,-3.8712,0.0911,-0.1295,-1554.44,-124.88,-984.68
21090,-3.8712,0.0952,-0.1357,-335.69,-578.00,-1297.18
21100,-3.8712,0.0873,-0.1389,195.56,-1374.82,-1422.18
21110,-3.8712,0.0714,-0.1353,-820.07,-1781.13,-1125.31
21120,-3.8712,0.0607,-0.1321,1148.68,-1312.38,-953.43
21130,-3.8712,0.0609,-0.1310,-226.32,-906.19,-969.06
21140,-3.8712,0.0703,-0.1299,-195.07,-765.56,-812.81
21150,-3.8712,0.0819,-0.1298,1008.06,-624.88,-765.93
21160,-3.8712,0.0895,-0.1312,-1507.57,-609.25,-1094.06
21170,-3.8712,0.0906,-0.1329,-538.82,-796.75,-1312.81
21180,-3.8712,0.0856,-0.1337,-398.19,-1015.50,-1219.06
21190,-3.8712,0.0776,-0.1339,-1038.82,-1109.25,-1172.18
21200,-3.8712,0.0704,-0.1312,1945.56,-1140.50,-1203.43
21210,-3.8712,0.0670,-0.1282,1023.68,-796.75,-1015.93
21220,-3.8712,0.0706,-0.1287,586.18,-406.13,-828.43
21230,-3.8712,0.0789,-0.1288,1039.31,-468.63,-937.81
21240,-3.8712,0.0850,-0.1278,-1898.19,-484.25,-1203.43
21250,-3.8712,0.0867,-0.1282,-1116.94,-359.25,-1187.81
21260,-3.8712,0.0844,-0.1301,-898.19,-406.13,-953.43
21270,-3.8712,0.0781,-0.1324,-1195.07,-656.13,-765.93
21280,-3.8712,0.0724,-0.1332,-1991.94,-953.00,-812.81
21290,-3.8712,0.0702,-0.1313,1273.68,-1046.75,-1125.31
21300,-3.8712,0.0713,-0.1294,992.43,-812.38,-1281.56
21310,-3.8712,0.0746,-0.1285,1133.06,-562.38,-1203.43
21320,-3.8712,0.0771,-0.1293,1554.93,-453.00,-1125.31
21330,-3.8712,0.0784,-0.1316,1883.06,-546.75,-1047.18
21340,-3.8712,0.0773,-0.1327,-1960.69,-843.63,-1047.18
21350,-3.8712,0.0726,-0.1312,1898.68,-984.25,-1062.81
21360,-3.8712,0.0665,-0.1298,1304.93,-796.75,-1000.31
21370,-3.8712,0.0635,-0.1299,523.68,-609.25,-1015.93
21380,-3.8712,0.0676,-0.1302,133.06,-624.88,-1125.31
21390,-3.8712,0.0771,-0.1302,664.31,-671.75,-1234.68
21400,-3.8712,0.0820,-0.1309,1883.06,-671.75,-1265.93
21410,-3.8712,0.0773,-0.1313,-1491.94,-749.88,-1109.68
21420,-3.8712,0.0686,-0.1313,1898.68,-812.38,-906.56
21430,-3.8712,0.0653,-0.1302,789.31,-812.38,-859.68
21440,-3.8712,0.0677,-0.1285,367.43,-671.75,-969.06
21450,-3.8712,0.0695,-0.1279,679.93,-453.00,-1078.43
21460,-3.8712,0.0663,-0.1284,898.68,-374.88,-1109.68
21470,-3.8712,0.0625,-0.1298,492.43,-437.38,-1140.93
21480,-3.8712,0.0637,-0.1316,8.06,-609.25,-1187.81
21490,-3.8712,0.0681,-0.1334,164.31,-843.63,-1172.18
21500,-3.8712,0.0704,-0.1334,726.81,-1078.00,-1187.81
21510,-3.8712,0.0706,-0.1317,1023.68,-1078.00,-1187.81
21520,-3.8712,0.0719,-0.1300,1039.31,-859.25,-1140.93
21530,-3.8712,0.0737,-0.1293,1211.18,-640.50,-1000.31
21540,-3.8712,0.0730,-0.1290,1445.56,-546.75,-875.31
21550,-3.8712,0.0709,-0.1282,1351.81,-515.50,-875.31
21560,-3.8712,0.0701,-0.1281,1086.18,-406.13,-1000.31
21570,-3.8712,0.0685,-0.1288,976.81,-390.50,-1047.18
21580,-3.8712,0.0627,-0.1290,773.68,-484.25,-906.56
21590,-3.8712,0.0571,-0.1298,39.31,-515.50,-828.43
21600,-3.8712,0.0582,-0.1305,-679.44,-609.31,-922.18
21610,-3.8712,0.0643,-0.1301,-538.82,-703.06,-969.06
21620,-3.8712,0.0686,-0.1305,242.43,-656.13,-781.56
21630,-3.8712,0.0676,-0.1321,789.31,-703.00,-672.18
21640,-3.8712,0.0636,-0.1324,664.31,-906.13,-937.81
21650,-3.8712,0.0612,-0.1310,148.68,-953.00,-1234.68
21660,-3.8712,0.0620,-0.1299,-163.82,-765.56,-1219.06
21670,-3.8712,0.0647,-0.1296,-54.44,-624.94,-1078.43
21680,-3.8712,0.0663,-0.1300,289.31,-593.63,-937.81
21690,-3.8712,0.0664,-0.1313,492.43,-640.50,-859.68
21700,-3.8712,0.0664,-0.1329,508.06,-812.38,-828.43
21710,-3.8712,0.0668,-0.1333,508.06,-1015.50,-890.93
21720,-3.8712,0.0664,-0.1322,554.93,-1062.38,-984.68
21730,-3.8712,0.0630,-0.1305,508.06,-921.75,-1015.93
21740,-3.8712,0.0574,-0.1289,70.56,-703.00,-1000.31
21750,-3.8712,0.0542,-0.1281,-648.19,-499.94,-937.81
21760,-3.8712,0.0557,-0.1290,-1054.44,-390.56,-797.18
21770,-3.8712,0.0596,-0.1312,-866.94,-515.56,-734.68
21780,-3.8712,0.0646,-0.1333,-366.94,-796.81,-875.31
21790,-3.8712,0.0693,-0.1337,273.68,-1062.38,-969.06
21800,-3.8712,0.0710,-0.1313,883.06,-1109.25,-984.68
21810,-3.8712,0.0679,-0.1296,1101.81,-812.38,-1078.43
21820,-3.8712,0.0613,-0.1295,695.56,-593.63,-1078.43
21830,-3.8712,0.0555,-0.1295,-148.19,-578.06,-875.31
21840,-3.8712,0.0547,-0.1300,-882.57,-578.06,-750.31
21850,-3.8712,0.0585,-0.1307,-991.94,-640.56,-781.56
21860,-3.8712,0.0641,-0.1321,-507.57,-734.31,-828.43
21870,-3.8712,0.0687,-0.1329,211.18,-906.13,-984.68
21880,-3.8712,0.0679,-0.1321,804.93,-1015.50,-1062.81
21890,-3.8712,0.0604,-0.1306,695.56,-906.13,-890.93
21900,-3.8712,0.0525,-0.1295,-257.57,-718.69,-734.68
21910,-3.8712,0.0503,-0.1296,-1273.19,-578.06,-875.31
21920,-3.8712,0.0538,-0.1310,-1554.44,-593.69,-1031.56
21930,-3.8712,0.0590,-0.1320,-1101.32,-765.56,-1047.18
21940,-3.8712,0.0634,-0.1322,-445.07,-890.56,-1000.31
21950,-3.8712,0.0651,-0.1317,117.43,-921.75,-922.18
21960,-3.8712,0.0634,-0.1306,336.18,-859.25,-937.81
21970,-3.8712,0.0608,-0.1301,117.43,-718.63,-984.68
21980,-3.8712,0.0588,-0.1301,-210.69,-656.19,-969.06
21990,-3.8712,0.0588,-0.1313,-460.69,-656.19,-953.43
22000,-3.8712,0.0619,-0.1335,-460.69,-812.44,-1031.56
22010,-3.8712,0.0631,-0.1346,-70.07,-1093.69,-1109.68
22020,-3.8712,0.0588,-0.1340,86.18,-1234.25,-1000.31
22030,-3.8712,0.0538,-0.1324,-460.69,-1156.19,-781.56
22040,-3.8712,0.0546,-0.1302,-1101.32,-953.06,-797.18
22050,-3.8712,0.0618,-0.1282,-1007.57,-671.81,-1000.31
22060,-3.8712,0.0686,-0.1282,-85.69,-406.19,-1062.81
22070,-3.8712,0.0684,-0.1304,789.31,-406.13,-922.18
22080,-3.8712,0.0618,-0.1328,758.06,-687.38,-844.06
22090,-3.8712,0.0543,-0.1334,-85.69,-999.94,-922.18
22100,-3.8712,0.0514,-0.1324,-1038.82,-1078.06,-969.06
22110,-3.8712,0.0536,-0.1318,-1413.82,-953.06,-969.06
22120,-3.8712,0.0579,-0.1312,-1132.57,-874.94,-1000.31
22130,-3.8712,0.0618,-0.1299,-585.69,-796.81,-1078.43
22140,-3.8712,0.0640,-0.1298,-85.69,-624.94,-1062.81
22150,-3.8712,0.0648,-0.1313,195.56,-609.25,-984.68
22160,-3.8712,0.0629,-0.1329,304.93,-812.38,-953.43
22170,-3.8712,0.0599,-0.1329,54.93,-1015.50,-922.18
22180,-3.8712,0.0588,-0.1317,-320.07,-1015.56,-1047.18
22190,-3.8712,0.0603,-0.1313,-460.69,-859.31,-1187.81
22200,-3.8712,0.0638,-0.1316,-273.19,-812.44,-1172.18
22210,-3.8712,0.0651,-0.1313,179.93,-843.63,-1156.56
22220,-3.8712,0.0619,-0.1304,336.18,-812.38,-1156.56
22230,-3.8712,0.0568,-0.1309,-70.07,-687.44,-1047.18
22240,-3.8712,0.0532,-0.1321,-726.32,-749.94,-719.06
22250,-3.8712,0.0538,-0.1323,-1179.44,-906.19,-625.31
22260,-3.8712,0.0580,-0.1318,-1101.32,-937.44,-953.43
22270,-3.8712,0.0632,-0.1312,-570.07,-874.94,-1203.43
22280,-3.8712,0.0652,-0.1315,101.81,-796.75,-1172.18
22290,-3.8712,0.0634,-0.1320,351.81,-828.00,-1125.31
22300,-3.8712,0.0605,-0.1327,117.43,-890.50,-1047.18
22310,-3.8712,0.0582,-0.1327,-241.94,-984.31,-969.06
22320,-3.8712,0.0565,-0.1318,-538.82,-984.31,-1031.56
22330,-3.8712,0.0570,-0.1310,-757.57,-874.94,-1031.56
22340,-3.8712,0.0607,-0.1315,-695.07,-765.56,-1047.18
22350,-3.8712,0.0626,-0.1324,-226.32,-828.06,-1172.18
22360,-3.8712,0.0596,-0.1315,23.68,-953.00,-1094.06
22370,-3.8712,0.0557,-0.1299,-366.94,-828.06,-781.56
22380,-3.8712,0.0560,-0.1294,-866.94,-624.94,-781.56
22390,-3.8712,0.0614,-0.1298,-820.07,-562.44,-1094.06
22400,-3.8712,0.0662,-0.1305,-132.57,-609.31,-1172.18
22410,-3.8712,0.0665,-0.1317,476.81,-703.00,-1000.31
22420,-3.8712,0.0620,-0.1326,523.68,-859.25,-922.18
22430,-3.8712,0.0544,-0.1318,-54.44,-968.69,-890.93
22440,-3.8712,0.0508,-0.1294,-1023.19,-874.94,-765.93
22450,-3.8712,0.0566,-0.1296,-1491.94,-562.44,-750.31
22460,-3.8712,0.0657,-0.1313,-741.94,-593.69,-953.43
22470,-3.8712,0.0686,-0.1313,414.31,-812.38,-1140.93
22480,-3.8712,0.0653,-0.1312,789.31,-812.38,-1219.06
22490,-3.8712,0.0603,-0.1320,367.43,-796.75,-1140.93
22500,-3.8712,0.0558,-0.1339,-273.19,-890.56,-1000.31
22510,-3.8712,0.0530,-0.1343,-851.32,-1140.56,-890.93
22520,-3.8712,0.0541,-0.1323,-1210.69,-1187.44,-890.93
22530,-3.8712,0.0599,-0.1302,-1070.07,-937.44,-875.31
22540,-3.8712,0.0656,-0.1295,-320.07,-671.81,-890.93
22550,-3.8712,0.0663,-0.1296,398.68,-578.00,-922.18
22560,-3.8712,0.0625,-0.1307,492.43,-593.63,-922.18
22570,-3.8712,0.0582,-0.1326,8.06,-734.25,-797.18
22580,-3.8712,0.0570,-0.1332,-538.82,-968.69,-719.06
22590,-3.8712,0.0583,-0.1326,-695.07,-1046.81,-859.68
22600,-3.8712,0.0614,-0.1307,-523.19,-968.69,-1062.81
22610,-3.8712,0.0632,-0.1296,-132.57,-734.31,-1109.68
22620,-3.8712,0.0618,-0.1307,101.81,-593.63,-1000.31
22630,-3.8712,0.0575,-0.1321,-85.69,-734.31,-1015.93
22640,-3.8712,0.0538,-0.1329,-632.57,-906.19,-1047.18
22650,-3.8712,0.0546,-0.1329,-1101.32,-1015.56,-859.68
22660,-3.8712,0.0590,-0.1315,-1007.57,-1015.56,-781.56
22670,-3.8712,0.0642,-0.1299,-445.07,-828.06,-969.06
22680,-3.8712,0.0669,-0.1294,226.81,-624.88,-1062.81
22690,-3.8712,0.0651,-0.1296,570.56,-562.38,-1015.93
22700,-3.8712,0.0603,-0.1304,336.18,-593.63,-969.06
22710,-3.8712,0.0557,-0.1315,-273.19,-687.44,-906.56
22720,-3.8712,0.0536,-0.1320,-866.94,-828.06,-969.06
22730,-3.8712,0.0549,-0.1311,-1132.57,-890.56,-1000.31
22740,-3.8712,0.0591,-0.1312,-960.69,-781.19,-922.18
22750,-3.8712,0.0634,-0.1324,-429.44,-796.81,-922.18
22760,-3.8712,0.0652,-0.1333,117.43,-953.00,-937.81
